timestamp, acc_x, acc_y, acc_z, gyro_x, gyro_y, gyro_z, mag_x, mag_y, mag_z, light, la_x, la_y, la_z, gravity_x, gravity_y, gravity_z, pressure, rot_x, rot_y, rot_z, azimuth, pitch, roll, sensor_change
1551582139169, -2.5831451416015625, 4.424774169921875, 5.4373626708984375, 1.722808837890625, -0.7723236083984375, -0.6832122802734375, -366.56646728515625, -36.981201171875, -53.69873046875, 453.4129943847656, 1.052998661994934, -1.1291124820709229, 3.540066719055176, -1.5275851488113403, 3.289046287536621, 9.115084648132324, 994.7490234375, 0.10593153536319733, -0.14749710261821747, -0.9343501329421997, 144.0, -19.912724968518713, 6.565595752416097, android.sensor.pressure
1551582139190, -2.5831451416015625, 4.424774169921875, 5.4373626708984375, 1.722808837890625, -0.7723236083984375, -0.6832122802734375, -366.56646728515625, -36.981201171875, -53.69873046875, 315.2699890136719, 1.052998661994934, -1.1291124820709229, 3.540066719055176, -1.5275851488113403, 3.289046287536621, 9.115084648132324, 994.7490234375, 0.10593153536319733, -0.14749710261821747, -0.9343501329421997, 144.0, -19.912724968518713, 6.565595752416097, android.sensor.light
1551582139205, 1.30548095703125, 1.44732666015625, 9.506134033203125, 1.722808837890625, -0.7723236083984375, -0.6832122802734375, -366.56646728515625, -36.981201171875, -53.69873046875, 315.2699890136719, 1.052998661994934, -1.1291124820709229, 3.540066719055176, -1.5275851488113403, 3.289046287536621, 9.115084648132324, 994.7490234375, 0.10593153536319733, -0.14749710261821747, -0.9343501329421997, 144.0, -19.912724968518713, 6.565595752416097, android.sensor.accelerometer
1551582139268, 1.30548095703125, 1.44732666015625, 9.506134033203125, 1.722808837890625, -0.7723236083984375, -0.6832122802734375, -366.56646728515625, -36.981201171875, -53.69873046875, 315.2699890136719, 1.052998661994934, -1.1291124820709229, 3.540066719055176, -1.5275851488113403, 3.289046287536621, 9.115084648132324, 994.7490234375, 0.10593153536319733, -0.14749710261821747, -0.9343501329421997, 144.0, -19.912724968518713, 6.565595752416097, android.sensor.pressure
1551582139279, 1.30548095703125, 1.44732666015625, 9.506134033203125, 1.722808837890625, -0.7723236083984375, -0.6832122802734375, -324.0570068359375, -34.91058349609375, -15.20843505859375, 315.2699890136719, 1.052998661994934, -1.1291124820709229, 3.540066719055176, -1.5275851488113403, 3.289046287536621, 9.115084648132324, 994.7490234375, 0.10593153536319733, -0.14749710261821747, -0.9343501329421997, 144.0, -19.912724968518713, 6.565595752416097, android.sensor.magnetic_field
1551582139294, 1.30548095703125, 1.44732666015625, 9.506134033203125, 1.722808837890625, -0.7723236083984375, -0.6832122802734375, -324.0570068359375, -34.91058349609375, -15.20843505859375, 314.4229736328125, 1.052998661994934, -1.1291124820709229, 3.540066719055176, -1.5275851488113403, 3.289046287536621, 9.115084648132324, 994.7490234375, 0.10593153536319733, -0.14749710261821747, -0.9343501329421997, 144.0, -19.912724968518713, 6.565595752416097, android.sensor.light
1551582139296, 1.1925201416015625, 1.4803314208984375, 8.963516235351562, 1.722808837890625, -0.7723236083984375, -0.6832122802734375, -324.0570068359375, -34.91058349609375, -15.20843505859375, 314.4229736328125, 1.052998661994934, -1.1291124820709229, 3.540066719055176, -1.5275851488113403, 3.289046287536621, 9.115084648132324, 994.7490234375, 0.10593153536319733, -0.14749710261821747, -0.9343501329421997, 144.0, -19.912724968518713, 6.565595752416097, android.sensor.accelerometer
1551582139298, 1.1925201416015625, 1.4803314208984375, 8.963516235351562, -0.5267791748046875, 0.171173095703125, -0.0688323974609375, -324.0570068359375, -34.91058349609375, -15.20843505859375, 314.4229736328125, 1.052998661994934, -1.1291124820709229, 3.540066719055176, -1.5275851488113403, 3.289046287536621, 9.115084648132324, 994.7490234375, 0.10593153536319733, -0.14749710261821747, -0.9343501329421997, 144.0, -19.912724968518713, 6.565595752416097, android.sensor.gyroscope
1551582139368, 1.1925201416015625, 1.4803314208984375, 8.963516235351562, -0.5267791748046875, 0.171173095703125, -0.0688323974609375, -324.0570068359375, -34.91058349609375, -15.20843505859375, 314.4229736328125, 1.052998661994934, -1.1291124820709229, 3.540066719055176, -1.5275851488113403, 3.289046287536621, 9.115084648132324, 994.7425537109375, 0.10593153536319733, -0.14749710261821747, -0.9343501329421997, 144.0, -19.912724968518713, 6.565595752416097, android.sensor.pressure
1551582139380, 1.1925201416015625, 1.4803314208984375, 8.963516235351562, -0.5267791748046875, 0.171173095703125, -0.0688323974609375, -322.796630859375, -33.89129638671875, -15.478515625, 314.4229736328125, 1.052998661994934, -1.1291124820709229, 3.540066719055176, -1.5275851488113403, 3.289046287536621, 9.115084648132324, 994.7425537109375, 0.10593153536319733, -0.14749710261821747, -0.9343501329421997, 144.0, -19.912724968518713, 6.565595752416097, android.sensor.magnetic_field
1551582139391, 1.335906982421875, 1.2987060546875, 9.646286010742188, -0.5267791748046875, 0.171173095703125, -0.0688323974609375, -322.796630859375, -33.89129638671875, -15.478515625, 314.4229736328125, 1.052998661994934, -1.1291124820709229, 3.540066719055176, -1.5275851488113403, 3.289046287536621, 9.115084648132324, 994.7425537109375, 0.10593153536319733, -0.14749710261821747, -0.9343501329421997, 144.0, -19.912724968518713, 6.565595752416097, android.sensor.accelerometer
1551582139397, 1.335906982421875, 1.2987060546875, 9.646286010742188, -0.1608734130859375, 0.204681396484375, -0.0803680419921875, -322.796630859375, -33.89129638671875, -15.478515625, 314.4229736328125, 1.052998661994934, -1.1291124820709229, 3.540066719055176, -1.5275851488113403, 3.289046287536621, 9.115084648132324, 994.7425537109375, 0.10593153536319733, -0.14749710261821747, -0.9343501329421997, 144.0, -19.912724968518713, 6.565595752416097, android.sensor.gyroscope
1551582139468, 1.335906982421875, 1.2987060546875, 9.646286010742188, -0.1608734130859375, 0.204681396484375, -0.0803680419921875, -322.796630859375, -33.89129638671875, -15.478515625, 314.4229736328125, 1.052998661994934, -1.1291124820709229, 3.540066719055176, -1.5275851488113403, 3.289046287536621, 9.115084648132324, 994.7425537109375, 0.10593153536319733, -0.14749710261821747, -0.9343501329421997, 144.0, -19.912724968518713, 6.565595752416097, android.sensor.pressure
1551582139474, 1.335906982421875, 1.2987060546875, 9.646286010742188, -0.1608734130859375, 0.204681396484375, -0.0803680419921875, -322.16644287109375, -32.720947265625, -15.2374267578125, 314.4229736328125, 1.052998661994934, -1.1291124820709229, 3.540066719055176, -1.5275851488113403, 3.289046287536621, 9.115084648132324, 994.7425537109375, 0.10593153536319733, -0.14749710261821747, -0.9343501329421997, 144.0, -19.912724968518713, 6.565595752416097, android.sensor.magnetic_field
1551582139489, 1.2309722900390625, 1.45184326171875, 9.548202514648438, -0.1608734130859375, 0.204681396484375, -0.0803680419921875, -322.16644287109375, -32.720947265625, -15.2374267578125, 314.4229736328125, 1.052998661994934, -1.1291124820709229, 3.540066719055176, -1.5275851488113403, 3.289046287536621, 9.115084648132324, 994.7425537109375, 0.10593153536319733, -0.14749710261821747, -0.9343501329421997, 144.0, -19.912724968518713, 6.565595752416097, android.sensor.accelerometer
1551582139494, 1.2309722900390625, 1.45184326171875, 9.548202514648438, -0.14306640625, 0.2665863037109375, -0.162628173828125, -322.16644287109375, -32.720947265625, -15.2374267578125, 314.4229736328125, 1.052998661994934, -1.1291124820709229, 3.540066719055176, -1.5275851488113403, 3.289046287536621, 9.115084648132324, 994.7425537109375, 0.10593153536319733, -0.14749710261821747, -0.9343501329421997, 144.0, -19.912724968518713, 6.565595752416097, android.sensor.gyroscope
1551582139569, 1.2309722900390625, 1.45184326171875, 9.548202514648438, -0.14306640625, 0.2665863037109375, -0.162628173828125, -322.16644287109375, -32.720947265625, -15.2374267578125, 314.4229736328125, 1.052998661994934, -1.1291124820709229, 3.540066719055176, -1.5275851488113403, 3.289046287536621, 9.115084648132324, 994.7532958984375, 0.10593153536319733, -0.14749710261821747, -0.9343501329421997, 144.0, -19.912724968518713, 6.565595752416097, android.sensor.pressure
1551582139573, 1.2309722900390625, 1.45184326171875, 9.548202514648438, -0.14306640625, 0.2665863037109375, -0.162628173828125, -321.8963623046875, -32.24029541015625, -14.727783203125, 314.4229736328125, 1.052998661994934, -1.1291124820709229, 3.540066719055176, -1.5275851488113403, 3.289046287536621, 9.115084648132324, 994.7532958984375, 0.10593153536319733, -0.14749710261821747, -0.9343501329421997, 144.0, -19.912724968518713, 6.565595752416097, android.sensor.magnetic_field
1551582139588, 0.964019775390625, 1.5135650634765625, 9.300338745117188, -0.14306640625, 0.2665863037109375, -0.162628173828125, -321.8963623046875, -32.24029541015625, -14.727783203125, 314.4229736328125, 1.052998661994934, -1.1291124820709229, 3.540066719055176, -1.5275851488113403, 3.289046287536621, 9.115084648132324, 994.7532958984375, 0.10593153536319733, -0.14749710261821747, -0.9343501329421997, 144.0, -19.912724968518713, 6.565595752416097, android.sensor.accelerometer
1551582139593, 0.964019775390625, 1.5135650634765625, 9.300338745117188, -0.4117584228515625, 0.129058837890625, -0.1820831298828125, -321.8963623046875, -32.24029541015625, -14.727783203125, 314.4229736328125, 1.052998661994934, -1.1291124820709229, 3.540066719055176, -1.5275851488113403, 3.289046287536621, 9.115084648132324, 994.7532958984375, 0.10593153536319733, -0.14749710261821747, -0.9343501329421997, 144.0, -19.912724968518713, 6.565595752416097, android.sensor.gyroscope
1551582139602, 0.964019775390625, 1.5135650634765625, 9.300338745117188, -0.4117584228515625, 0.129058837890625, -0.1820831298828125, -321.8963623046875, -32.24029541015625, -14.727783203125, 286.4549865722656, 1.052998661994934, -1.1291124820709229, 3.540066719055176, -1.5275851488113403, 3.289046287536621, 9.115084648132324, 994.7532958984375, 0.10593153536319733, -0.14749710261821747, -0.9343501329421997, 144.0, -19.912724968518713, 6.565595752416097, android.sensor.light
1551582139669, 0.964019775390625, 1.5135650634765625, 9.300338745117188, -0.4117584228515625, 0.129058837890625, -0.1820831298828125, -321.8963623046875, -32.24029541015625, -14.727783203125, 286.4549865722656, 1.052998661994934, -1.1291124820709229, 3.540066719055176, -1.5275851488113403, 3.289046287536621, 9.115084648132324, 994.7532958984375, 0.10593153536319733, -0.14749710261821747, -0.9343501329421997, 144.0, -19.912724968518713, 6.565595752416097, android.sensor.pressure
1551582139670, 0.964019775390625, 1.5135650634765625, 9.300338745117188, -0.4117584228515625, 0.129058837890625, -0.1820831298828125, -322.10693359375, -30.889892578125, -15.057373046875, 286.4549865722656, 1.052998661994934, -1.1291124820709229, 3.540066719055176, -1.5275851488113403, 3.289046287536621, 9.115084648132324, 994.7532958984375, 0.10593153536319733, -0.14749710261821747, -0.9343501329421997, 144.0, -19.912724968518713, 6.565595752416097, android.sensor.magnetic_field
1551582139685, 0.7770233154296875, 1.5634307861328125, 10.342056274414062, -0.4117584228515625, 0.129058837890625, -0.1820831298828125, -322.10693359375, -30.889892578125, -15.057373046875, 286.4549865722656, 1.052998661994934, -1.1291124820709229, 3.540066719055176, -1.5275851488113403, 3.289046287536621, 9.115084648132324, 994.7532958984375, 0.10593153536319733, -0.14749710261821747, -0.9343501329421997, 144.0, -19.912724968518713, 6.565595752416097, android.sensor.accelerometer
1551582139690, 0.7770233154296875, 1.5634307861328125, 10.342056274414062, -0.234832763671875, 0.036773681640625, -0.1697540283203125, -322.10693359375, -30.889892578125, -15.057373046875, 286.4549865722656, 1.052998661994934, -1.1291124820709229, 3.540066719055176, -1.5275851488113403, 3.289046287536621, 9.115084648132324, 994.7532958984375, 0.10593153536319733, -0.14749710261821747, -0.9343501329421997, 144.0, -19.912724968518713, 6.565595752416097, android.sensor.gyroscope
1551582139769, 0.7770233154296875, 1.5634307861328125, 10.342056274414062, -0.234832763671875, 0.036773681640625, -0.1697540283203125, -322.13592529296875, -30.11016845703125, -15.80810546875, 286.4549865722656, 1.052998661994934, -1.1291124820709229, 3.540066719055176, -1.5275851488113403, 3.289046287536621, 9.115084648132324, 994.7532958984375, 0.10593153536319733, -0.14749710261821747, -0.9343501329421997, 144.0, -19.912724968518713, 6.565595752416097, android.sensor.magnetic_field
1551582139770, 0.7770233154296875, 1.5634307861328125, 10.342056274414062, -0.234832763671875, 0.036773681640625, -0.1697540283203125, -322.13592529296875, -30.11016845703125, -15.80810546875, 286.4549865722656, 1.052998661994934, -1.1291124820709229, 3.540066719055176, -1.5275851488113403, 3.289046287536621, 9.115084648132324, 994.7532958984375, 0.10593153536319733, -0.14749710261821747, -0.9343501329421997, 144.0, -19.912724968518713, 6.565595752416097, android.sensor.pressure
1551582139785, 0.5478057861328125, 1.457550048828125, 9.483291625976562, -0.234832763671875, 0.036773681640625, -0.1697540283203125, -322.13592529296875, -30.11016845703125, -15.80810546875, 286.4549865722656, 1.052998661994934, -1.1291124820709229, 3.540066719055176, -1.5275851488113403, 3.289046287536621, 9.115084648132324, 994.7532958984375, 0.10593153536319733, -0.14749710261821747, -0.9343501329421997, 144.0, -19.912724968518713, 6.565595752416097, android.sensor.accelerometer
1551582139788, 0.5478057861328125, 1.457550048828125, 9.483291625976562, -0.0763702392578125, 0.1789398193359375, -0.228607177734375, -322.13592529296875, -30.11016845703125, -15.80810546875, 286.4549865722656, 1.052998661994934, -1.1291124820709229, 3.540066719055176, -1.5275851488113403, 3.289046287536621, 9.115084648132324, 994.7532958984375, 0.10593153536319733, -0.14749710261821747, -0.9343501329421997, 144.0, -19.912724968518713, 6.565595752416097, android.sensor.gyroscope
1551582139869, 0.5478057861328125, 1.457550048828125, 9.483291625976562, -0.0763702392578125, 0.1789398193359375, -0.228607177734375, -322.37701416015625, -29.24041748046875, -15.9881591796875, 286.4549865722656, 1.052998661994934, -1.1291124820709229, 3.540066719055176, -1.5275851488113403, 3.289046287536621, 9.115084648132324, 994.7532958984375, 0.10593153536319733, -0.14749710261821747, -0.9343501329421997, 144.0, -19.912724968518713, 6.565595752416097, android.sensor.magnetic_field
1551582139871, 0.5478057861328125, 1.457550048828125, 9.483291625976562, -0.0763702392578125, 0.1789398193359375, -0.228607177734375, -322.37701416015625, -29.24041748046875, -15.9881591796875, 286.4549865722656, 1.052998661994934, -1.1291124820709229, 3.540066719055176, -1.5275851488113403, 3.289046287536621, 9.115084648132324, 994.76025390625, 0.10593153536319733, -0.14749710261821747, -0.9343501329421997, 144.0, -19.912724968518713, 6.565595752416097, android.sensor.pressure
1551582139884, 0.5478057861328125, 1.457550048828125, 9.483291625976562, -0.0763702392578125, 0.1789398193359375, -0.228607177734375, -322.37701416015625, -29.24041748046875, -15.9881591796875, 286.4549865722656, 1.052998661994934, -1.1291124820709229, 3.540066719055176, 1.020794153213501, 1.5438017845153809, 9.633833885192871, 994.76025390625, 0.10593153536319733, -0.14749710261821747, -0.9343501329421997, 144.0, -19.912724968518713, 6.565595752416097, android.sensor.gravity
1551582139884, 0.5360107421875, 1.7279510498046875, 8.781295776367188, -0.0763702392578125, 0.1789398193359375, -0.228607177734375, -322.37701416015625, -29.24041748046875, -15.9881591796875, 286.4549865722656, 1.052998661994934, -1.1291124820709229, 3.540066719055176, 1.020794153213501, 1.5438017845153809, 9.633833885192871, 994.76025390625, 0.10593153536319733, -0.14749710261821747, -0.9343501329421997, 144.0, -19.912724968518713, 6.565595752416097, android.sensor.accelerometer
1551582139890, 0.5360107421875, 1.7279510498046875, 8.781295776367188, -0.159271240234375, -0.04034423828125, -0.1980743408203125, -322.37701416015625, -29.24041748046875, -15.9881591796875, 286.4549865722656, 1.052998661994934, -1.1291124820709229, 3.540066719055176, 1.020794153213501, 1.5438017845153809, 9.633833885192871, 994.76025390625, 0.10593153536319733, -0.14749710261821747, -0.9343501329421997, 144.0, -19.912724968518713, 6.565595752416097, android.sensor.gyroscope
1551582139901, 0.5360107421875, 1.7279510498046875, 8.781295776367188, -0.159271240234375, -0.04034423828125, -0.1980743408203125, -322.37701416015625, -29.24041748046875, -15.9881591796875, 286.4549865722656, 0.3202136754989624, -0.2827550172805786, 0.3921365737915039, 1.020794153213501, 1.5438017845153809, 9.633833885192871, 994.76025390625, 0.10593153536319733, -0.14749710261821747, -0.9343501329421997, 144.0, -19.912724968518713, 6.565595752416097, android.sensor.linear_acceleration
1551582139906, 0.5360107421875, 1.7279510498046875, 8.781295776367188, -0.159271240234375, -0.04034423828125, -0.1980743408203125, -322.37701416015625, -29.24041748046875, -15.9881591796875, 286.4549865722656, 0.3202136754989624, -0.2827550172805786, 0.3921365737915039, 1.020794153213501, 1.5438017845153809, 9.633833885192871, 994.76025390625, 0.017038758844137192, -0.0938001349568367, -0.7325116991996765, 94.0, -9.229487776371075, -5.901588666969552, android.sensor.rotation_vector
1551582139908, 0.5360107421875, 1.7279510498046875, 8.781295776367188, -0.159271240234375, -0.04034423828125, -0.1980743408203125, -322.37701416015625, -29.24041748046875, -15.9881591796875, 286.4549865722656, 0.3202136754989624, -0.2827550172805786, 0.3921365737915039, 1.020794153213501, 1.5438017845153809, 9.633833885192871, 994.76025390625, 0.017038758844137192, -0.0938001349568367, -0.7325116991996765, 94.0, -9.229487776371075, -5.901588666969552, android.sensor.orientation
1551582139968, 0.5360107421875, 1.7279510498046875, 8.781295776367188, -0.159271240234375, -0.04034423828125, -0.1980743408203125, -321.356201171875, -28.58123779296875, -15.6585693359375, 286.4549865722656, 0.3202136754989624, -0.2827550172805786, 0.3921365737915039, 1.020794153213501, 1.5438017845153809, 9.633833885192871, 994.76025390625, 0.017038758844137192, -0.0938001349568367, -0.7325116991996765, 94.0, -9.229487776371075, -5.901588666969552, android.sensor.magnetic_field
1551582139972, 0.5360107421875, 1.7279510498046875, 8.781295776367188, -0.159271240234375, -0.04034423828125, -0.1980743408203125, -321.356201171875, -28.58123779296875, -15.6585693359375, 286.4549865722656, 0.3202136754989624, -0.2827550172805786, 0.3921365737915039, 1.020794153213501, 1.5438017845153809, 9.633833885192871, 994.7633056640625, 0.017038758844137192, -0.0938001349568367, -0.7325116991996765, 94.0, -9.229487776371075, -5.901588666969552, android.sensor.pressure
1551582139983, 0.014617919921875, 1.93878173828125, 9.73236083984375, -0.159271240234375, -0.04034423828125, -0.1980743408203125, -321.356201171875, -28.58123779296875, -15.6585693359375, 286.4549865722656, 0.3202136754989624, -0.2827550172805786, 0.3921365737915039, 1.020794153213501, 1.5438017845153809, 9.633833885192871, 994.7633056640625, 0.017038758844137192, -0.0938001349568367, -0.7325116991996765, 94.0, -9.229487776371075, -5.901588666969552, android.sensor.accelerometer
1551582139983, 0.014617919921875, 1.93878173828125, 9.73236083984375, -0.159271240234375, -0.04034423828125, -0.1980743408203125, -321.356201171875, -28.58123779296875, -15.6585693359375, 286.4549865722656, 0.3202136754989624, -0.2827550172805786, 0.3921365737915039, 0.4255795478820801, 1.3918404579162598, 9.701431274414062, 994.7633056640625, 0.017038758844137192, -0.0938001349568367, -0.7325116991996765, 94.0, -9.229487776371075, -5.901588666969552, android.sensor.gravity
1551582139987, 0.014617919921875, 1.93878173828125, 9.73236083984375, -0.1566162109375, 0.6367950439453125, -0.3152618408203125, -321.356201171875, -28.58123779296875, -15.6585693359375, 286.4549865722656, 0.3202136754989624, -0.2827550172805786, 0.3921365737915039, 0.4255795478820801, 1.3918404579162598, 9.701431274414062, 994.7633056640625, 0.017038758844137192, -0.0938001349568367, -0.7325116991996765, 94.0, -9.229487776371075, -5.901588666969552, android.sensor.gyroscope
1551582139993, 0.014617919921875, 1.93878173828125, 9.73236083984375, -0.1566162109375, 0.6367950439453125, -0.3152618408203125, -321.356201171875, -28.58123779296875, -15.6585693359375, 286.4549865722656, 0.6169562339782715, -0.3682142496109009, 0.06514549255371094, 0.4255795478820801, 1.3918404579162598, 9.701431274414062, 994.7633056640625, 0.017038758844137192, -0.0938001349568367, -0.7325116991996765, 94.0, -9.229487776371075, -5.901588666969552, android.sensor.linear_acceleration
1551582139997, 0.014617919921875, 1.93878173828125, 9.73236083984375, -0.1566162109375, 0.6367950439453125, -0.3152618408203125, -321.356201171875, -28.58123779296875, -15.6585693359375, 286.4549865722656, 0.6169562339782715, -0.3682142496109009, 0.06514549255371094, 0.4255795478820801, 1.3918404579162598, 9.701431274414062, 994.7633056640625, 0.03811977058649063, -0.06667880713939667, -0.7413707971572876, 95.0, -8.609268179919836, -1.8770567928904485, android.sensor.rotation_vector
1551582140002, 0.014617919921875, 1.93878173828125, 9.73236083984375, -0.1566162109375, 0.6367950439453125, -0.3152618408203125, -321.356201171875, -28.58123779296875, -15.6585693359375, 286.4549865722656, 0.6169562339782715, -0.3682142496109009, 0.06514549255371094, 0.4255795478820801, 1.3918404579162598, 9.701431274414062, 994.7633056640625, 0.03811977058649063, -0.06667880713939667, -0.7413707971572876, 95.0, -8.609268179919836, -1.8770567928904485, android.sensor.orientation
1551582140008, 0.014617919921875, 1.93878173828125, 9.73236083984375, -0.1566162109375, 0.6367950439453125, -0.3152618408203125, -321.356201171875, -28.58123779296875, -15.6585693359375, 229.67298889160156, 0.6169562339782715, -0.3682142496109009, 0.06514549255371094, 0.4255795478820801, 1.3918404579162598, 9.701431274414062, 994.7633056640625, 0.03811977058649063, -0.06667880713939667, -0.7413707971572876, 95.0, -8.609268179919836, -1.8770567928904485, android.sensor.light
1551582140060, 0.014617919921875, 1.93878173828125, 9.73236083984375, -0.1566162109375, 0.6367950439453125, -0.3152618408203125, -319.67620849609375, -27.50091552734375, -16.91741943359375, 229.67298889160156, 0.6169562339782715, -0.3682142496109009, 0.06514549255371094, 0.4255795478820801, 1.3918404579162598, 9.701431274414062, 994.7633056640625, 0.03811977058649063, -0.06667880713939667, -0.7413707971572876, 95.0, -8.609268179919836, -1.8770567928904485, android.sensor.magnetic_field
1551582140068, 0.014617919921875, 1.93878173828125, 9.73236083984375, -0.1566162109375, 0.6367950439453125, -0.3152618408203125, -319.67620849609375, -27.50091552734375, -16.91741943359375, 229.67298889160156, 0.6169562339782715, -0.3682142496109009, 0.06514549255371094, 0.4255795478820801, 1.3918404579162598, 9.701431274414062, 994.7633056640625, 0.03811977058649063, -0.06667880713939667, -0.7413707971572876, 95.0, -8.609268179919836, -1.8770567928904485, android.sensor.pressure
1551582140075, -1.18450927734375, 2.0907440185546875, 12.2252197265625, -0.1566162109375, 0.6367950439453125, -0.3152618408203125, -319.67620849609375, -27.50091552734375, -16.91741943359375, 229.67298889160156, 0.6169562339782715, -0.3682142496109009, 0.06514549255371094, 0.4255795478820801, 1.3918404579162598, 9.701431274414062, 994.7633056640625, 0.03811977058649063, -0.06667880713939667, -0.7413707971572876, 95.0, -8.609268179919836, -1.8770567928904485, android.sensor.accelerometer
1551582140075, -1.18450927734375, 2.0907440185546875, 12.2252197265625, -0.1566162109375, 0.6367950439453125, -0.3152618408203125, -319.67620849609375, -27.50091552734375, -16.91741943359375, 229.67298889160156, 0.6169562339782715, -0.3682142496109009, 0.06514549255371094, 0.30558720231056213, 1.1971025466918945, 9.731889724731445, 994.7633056640625, 0.03811977058649063, -0.06667880713939667, -0.7413707971572876, 95.0, -8.609268179919836, -1.8770567928904485, android.sensor.gravity
1551582140080, -1.18450927734375, 2.0907440185546875, 12.2252197265625, -0.2176666259765625, 0.151763916015625, -0.0231475830078125, -319.67620849609375, -27.50091552734375, -16.91741943359375, 229.67298889160156, 0.6169562339782715, -0.3682142496109009, 0.06514549255371094, 0.30558720231056213, 1.1971025466918945, 9.731889724731445, 994.7633056640625, 0.03811977058649063, -0.06667880713939667, -0.7413707971572876, 95.0, -8.609268179919836, -1.8770567928904485, android.sensor.gyroscope
1551582140089, -1.18450927734375, 2.0907440185546875, 12.2252197265625, -0.2176666259765625, 0.151763916015625, -0.0231475830078125, -319.67620849609375, -27.50091552734375, -16.91741943359375, 229.67298889160156, 1.2962722778320312, -0.6537045240402222, -3.177931785583496, 0.30558720231056213, 1.1971025466918945, 9.731889724731445, 994.7633056640625, 0.03811977058649063, -0.06667880713939667, -0.7413707971572876, 95.0, -8.609268179919836, -1.8770567928904485, android.sensor.linear_acceleration
1551582140094, -1.18450927734375, 2.0907440185546875, 12.2252197265625, -0.2176666259765625, 0.151763916015625, -0.0231475830078125, -319.67620849609375, -27.50091552734375, -16.91741943359375, 229.67298889160156, 1.2962722778320312, -0.6537045240402222, -3.177931785583496, 0.30558720231056213, 1.1971025466918945, 9.731889724731445, 994.7633056640625, 0.03872421383857727, -0.052356649190187454, -0.7417531609535217, 95.0, -7.433106189749055, -0.7193353529833503, android.sensor.rotation_vector
1551582140100, -1.18450927734375, 2.0907440185546875, 12.2252197265625, -0.2176666259765625, 0.151763916015625, -0.0231475830078125, -319.67620849609375, -27.50091552734375, -16.91741943359375, 229.67298889160156, 1.2962722778320312, -0.6537045240402222, -3.177931785583496, 0.30558720231056213, 1.1971025466918945, 9.731889724731445, 994.7633056640625, 0.03872421383857727, -0.052356649190187454, -0.7417531609535217, 95.0, -7.433106189749055, -0.7193353529833503, android.sensor.orientation
1551582140113, -1.18450927734375, 2.0907440185546875, 12.2252197265625, -0.2176666259765625, 0.151763916015625, -0.0231475830078125, -319.67620849609375, -27.50091552734375, -16.91741943359375, 193.22999572753906, 1.2962722778320312, -0.6537045240402222, -3.177931785583496, 0.30558720231056213, 1.1971025466918945, 9.731889724731445, 994.7633056640625, 0.03872421383857727, -0.052356649190187454, -0.7417531609535217, 95.0, -7.433106189749055, -0.7193353529833503, android.sensor.light
1551582140159, -1.18450927734375, 2.0907440185546875, 12.2252197265625, -0.2176666259765625, 0.151763916015625, -0.0231475830078125, -317.75665283203125, -28.1005859375, -16.888427734375, 193.22999572753906, 1.2962722778320312, -0.6537045240402222, -3.177931785583496, 0.30558720231056213, 1.1971025466918945, 9.731889724731445, 994.7633056640625, 0.03872421383857727, -0.052356649190187454, -0.7417531609535217, 95.0, -7.433106189749055, -0.7193353529833503, android.sensor.magnetic_field
1551582140169, -1.18450927734375, 2.0907440185546875, 12.2252197265625, -0.2176666259765625, 0.151763916015625, -0.0231475830078125, -317.75665283203125, -28.1005859375, -16.888427734375, 193.22999572753906, 1.2962722778320312, -0.6537045240402222, -3.177931785583496, 0.30558720231056213, 1.1971025466918945, 9.731889724731445, 994.780517578125, 0.03872421383857727, -0.052356649190187454, -0.7417531609535217, 95.0, -7.433106189749055, -0.7193353529833503, android.sensor.pressure
1551582140175, -1.18450927734375, 2.0907440185546875, 12.2252197265625, -0.2176666259765625, 0.151763916015625, -0.0231475830078125, -317.75665283203125, -28.1005859375, -16.888427734375, 193.22999572753906, 1.2962722778320312, -0.6537045240402222, -3.177931785583496, -0.017489826306700706, 1.5795084238052368, 9.681991577148438, 994.780517578125, 0.03872421383857727, -0.052356649190187454, -0.7417531609535217, 95.0, -7.433106189749055, -0.7193353529833503, android.sensor.gravity
1551582140175, -1.7139129638671875, 1.0741119384765625, 11.49652099609375, -0.2176666259765625, 0.151763916015625, -0.0231475830078125, -317.75665283203125, -28.1005859375, -16.888427734375, 193.22999572753906, 1.2962722778320312, -0.6537045240402222, -3.177931785583496, -0.017489826306700706, 1.5795084238052368, 9.681991577148438, 994.780517578125, 0.03872421383857727, -0.052356649190187454, -0.7417531609535217, 95.0, -7.433106189749055, -0.7193353529833503, android.sensor.accelerometer
1551582140178, -1.7139129638671875, 1.0741119384765625, 11.49652099609375, 0.4476470947265625, 0.320068359375, 0.55682373046875, -317.75665283203125, -28.1005859375, -16.888427734375, 193.22999572753906, 1.2962722778320312, -0.6537045240402222, -3.177931785583496, -0.017489826306700706, 1.5795084238052368, 9.681991577148438, 994.780517578125, 0.03872421383857727, -0.052356649190187454, -0.7417531609535217, 95.0, -7.433106189749055, -0.7193353529833503, android.sensor.gyroscope
1551582140189, -1.7139129638671875, 1.0741119384765625, 11.49652099609375, 0.4476470947265625, 0.320068359375, 0.55682373046875, -317.75665283203125, -28.1005859375, -16.888427734375, 193.22999572753906, 1.4817286729812622, 0.6799072027206421, -2.0214548110961914, -0.017489826306700706, 1.5795084238052368, 9.681991577148438, 994.780517578125, 0.03872421383857727, -0.052356649190187454, -0.7417531609535217, 95.0, -7.433106189749055, -0.7193353529833503, android.sensor.linear_acceleration
1551582140193, -1.7139129638671875, 1.0741119384765625, 11.49652099609375, 0.4476470947265625, 0.320068359375, 0.55682373046875, -317.75665283203125, -28.1005859375, -16.888427734375, 193.22999572753906, 1.4817286729812622, 0.6799072027206421, -2.0214548110961914, -0.017489826306700706, 1.5795084238052368, 9.681991577148438, 994.780517578125, 0.061241280287504196, -0.06308871507644653, -0.7197145223617554, 92.0, -10.08814671542652, 0.07312677334840022, android.sensor.rotation_vector
1551582140198, -1.7139129638671875, 1.0741119384765625, 11.49652099609375, 0.4476470947265625, 0.320068359375, 0.55682373046875, -317.75665283203125, -28.1005859375, -16.888427734375, 193.22999572753906, 1.4817286729812622, 0.6799072027206421, -2.0214548110961914, -0.017489826306700706, 1.5795084238052368, 9.681991577148438, 994.780517578125, 0.061241280287504196, -0.06308871507644653, -0.7197145223617554, 92.0, -10.08814671542652, 0.07312677334840022, android.sensor.orientation
1551582140257, -1.7139129638671875, 1.0741119384765625, 11.49652099609375, 0.4476470947265625, 0.320068359375, 0.55682373046875, -315.62652587890625, -30.889892578125, -16.888427734375, 193.22999572753906, 1.4817286729812622, 0.6799072027206421, -2.0214548110961914, -0.017489826306700706, 1.5795084238052368, 9.681991577148438, 994.780517578125, 0.061241280287504196, -0.06308871507644653, -0.7197145223617554, 92.0, -10.08814671542652, 0.07312677334840022, android.sensor.magnetic_field
1551582140270, -1.7139129638671875, 1.0741119384765625, 11.49652099609375, 0.4476470947265625, 0.320068359375, 0.55682373046875, -315.62652587890625, -30.889892578125, -16.888427734375, 193.22999572753906, 1.4817286729812622, 0.6799072027206421, -2.0214548110961914, -0.017489826306700706, 1.5795084238052368, 9.681991577148438, 994.780517578125, 0.061241280287504196, -0.06308871507644653, -0.7197145223617554, 92.0, -10.08814671542652, 0.07312677334840022, android.sensor.pressure
1551582140271, -0.628692626953125, 1.2714080810546875, 11.877334594726562, 0.4476470947265625, 0.320068359375, 0.55682373046875, -315.62652587890625, -30.889892578125, -16.888427734375, 193.22999572753906, 1.4817286729812622, 0.6799072027206421, -2.0214548110961914, -0.017489826306700706, 1.5795084238052368, 9.681991577148438, 994.780517578125, 0.061241280287504196, -0.06308871507644653, -0.7197145223617554, 92.0, -10.08814671542652, 0.07312677334840022, android.sensor.accelerometer
1551582140272, -0.628692626953125, 1.2714080810546875, 11.877334594726562, 0.4476470947265625, 0.320068359375, 0.55682373046875, -315.62652587890625, -30.889892578125, -16.888427734375, 193.22999572753906, 1.4817286729812622, 0.6799072027206421, -2.0214548110961914, -0.07056163996458054, 1.1993225812911987, 9.736157417297363, 994.780517578125, 0.061241280287504196, -0.06308871507644653, -0.7197145223617554, 92.0, -10.08814671542652, 0.07312677334840022, android.sensor.gravity
1551582140277, -0.628692626953125, 1.2714080810546875, 11.877334594726562, -0.584625244140625, 0.1361236572265625, 0.6010589599609375, -315.62652587890625, -30.889892578125, -16.888427734375, 193.22999572753906, 1.4817286729812622, 0.6799072027206421, -2.0214548110961914, -0.07056163996458054, 1.1993225812911987, 9.736157417297363, 994.780517578125, 0.061241280287504196, -0.06308871507644653, -0.7197145223617554, 92.0, -10.08814671542652, 0.07312677334840022, android.sensor.gyroscope
1551582140287, -0.628692626953125, 1.2714080810546875, 11.877334594726562, -0.584625244140625, 0.1361236572265625, 0.6010589599609375, -315.62652587890625, -30.889892578125, -16.888427734375, 193.22999572753906, 0.6734792590141296, -0.09157133102416992, -1.8037023544311523, -0.07056163996458054, 1.1993225812911987, 9.736157417297363, 994.780517578125, 0.061241280287504196, -0.06308871507644653, -0.7197145223617554, 92.0, -10.08814671542652, 0.07312677334840022, android.sensor.linear_acceleration
1551582140293, -0.628692626953125, 1.2714080810546875, 11.877334594726562, -0.584625244140625, 0.1361236572265625, 0.6010589599609375, -315.62652587890625, -30.889892578125, -16.888427734375, 193.22999572753906, 0.6734792590141296, -0.09157133102416992, -1.8037023544311523, -0.07056163996458054, 1.1993225812911987, 9.736157417297363, 994.780517578125, 0.035034239292144775, -0.03767087310552597, -0.7036858201026917, 89.0, -5.892982201728513, -0.23526671973473545, android.sensor.rotation_vector
1551582140297, -0.628692626953125, 1.2714080810546875, 11.877334594726562, -0.584625244140625, 0.1361236572265625, 0.6010589599609375, -315.62652587890625, -30.889892578125, -16.888427734375, 193.22999572753906, 0.6734792590141296, -0.09157133102416992, -1.8037023544311523, -0.07056163996458054, 1.1993225812911987, 9.736157417297363, 994.780517578125, 0.035034239292144775, -0.03767087310552597, -0.7036858201026917, 89.0, -5.892982201728513, -0.23526671973473545, android.sensor.orientation
1551582140319, -0.628692626953125, 1.2714080810546875, 11.877334594726562, -0.584625244140625, 0.1361236572265625, 0.6010589599609375, -315.62652587890625, -30.889892578125, -16.888427734375, 216.95999145507812, 0.6734792590141296, -0.09157133102416992, -1.8037023544311523, -0.07056163996458054, 1.1993225812911987, 9.736157417297363, 994.780517578125, 0.035034239292144775, -0.03767087310552597, -0.7036858201026917, 89.0, -5.892982201728513, -0.23526671973473545, android.sensor.light
1551582140355, -0.628692626953125, 1.2714080810546875, 11.877334594726562, -0.584625244140625, 0.1361236572265625, 0.6010589599609375, -317.51556396484375, -30.26123046875, -16.3787841796875, 216.95999145507812, 0.6734792590141296, -0.09157133102416992, -1.8037023544311523, -0.07056163996458054, 1.1993225812911987, 9.736157417297363, 994.780517578125, 0.035034239292144775, -0.03767087310552597, -0.7036858201026917, 89.0, -5.892982201728513, -0.23526671973473545, android.sensor.magnetic_field
1551582140370, -0.628692626953125, 1.2714080810546875, 11.877334594726562, -0.584625244140625, 0.1361236572265625, 0.6010589599609375, -317.51556396484375, -30.26123046875, -16.3787841796875, 216.95999145507812, 0.6734792590141296, -0.09157133102416992, -1.8037023544311523, 0.6890396475791931, 0.6269996762275696, 9.765664100646973, 994.780517578125, 0.035034239292144775, -0.03767087310552597, -0.7036858201026917, 89.0, -5.892982201728513, -0.23526671973473545, android.sensor.gravity
1551582140370, -0.9609527587890625, 0.26904296875, 10.761581420898438, -0.584625244140625, 0.1361236572265625, 0.6010589599609375, -317.51556396484375, -30.26123046875, -16.3787841796875, 216.95999145507812, 0.6734792590141296, -0.09157133102416992, -1.8037023544311523, 0.6890396475791931, 0.6269996762275696, 9.765664100646973, 994.780517578125, 0.035034239292144775, -0.03767087310552597, -0.7036858201026917, 89.0, -5.892982201728513, -0.23526671973473545, android.sensor.accelerometer
1551582140370, -0.9609527587890625, 0.26904296875, 10.761581420898438, -0.584625244140625, 0.1361236572265625, 0.6010589599609375, -317.51556396484375, -30.26123046875, -16.3787841796875, 216.95999145507812, 0.6734792590141296, -0.09157133102416992, -1.8037023544311523, 0.6890396475791931, 0.6269996762275696, 9.765664100646973, 994.7836303710938, 0.035034239292144775, -0.03767087310552597, -0.7036858201026917, 89.0, -5.892982201728513, -0.23526671973473545, android.sensor.pressure
1551582140373, -0.9609527587890625, 0.26904296875, 10.761581420898438, -0.3965606689453125, -0.754302978515625, 0.23602294921875, -317.51556396484375, -30.26123046875, -16.3787841796875, 216.95999145507812, 0.6734792590141296, -0.09157133102416992, -1.8037023544311523, 0.6890396475791931, 0.6269996762275696, 9.765664100646973, 994.7836303710938, 0.035034239292144775, -0.03767087310552597, -0.7036858201026917, 89.0, -5.892982201728513, -0.23526671973473545, android.sensor.gyroscope
1551582140383, -0.9609527587890625, 0.26904296875, 10.761581420898438, -0.3965606689453125, -0.754302978515625, 0.23602294921875, -317.51556396484375, -30.26123046875, -16.3787841796875, 216.95999145507812, 1.324418306350708, 0.23757082223892212, -0.8075084686279297, 0.6890396475791931, 0.6269996762275696, 9.765664100646973, 994.7836303710938, 0.035034239292144775, -0.03767087310552597, -0.7036858201026917, 89.0, -5.892982201728513, -0.23526671973473545, android.sensor.linear_acceleration
1551582140388, -0.9609527587890625, 0.26904296875, 10.761581420898438, -0.3965606689453125, -0.754302978515625, 0.23602294921875, -317.51556396484375, -30.26123046875, -16.3787841796875, 216.95999145507812, 1.324418306350708, 0.23757082223892212, -0.8075084686279297, 0.6890396475791931, 0.6269996762275696, 9.765664100646973, 994.7836303710938, 0.004394435323774815, -0.05280546098947525, -0.6946185231208801, 87.0, -4.569290259919572, -4.007384257280963, android.sensor.rotation_vector
1551582140393, -0.9609527587890625, 0.26904296875, 10.761581420898438, -0.3965606689453125, -0.754302978515625, 0.23602294921875, -317.51556396484375, -30.26123046875, -16.3787841796875, 216.95999145507812, 1.324418306350708, 0.23757082223892212, -0.8075084686279297, 0.6890396475791931, 0.6269996762275696, 9.765664100646973, 994.7836303710938, 0.004394435323774815, -0.05280546098947525, -0.6946185231208801, 87.0, -4.569290259919572, -4.007384257280963, android.sensor.orientation
1551582140455, -0.9609527587890625, 0.26904296875, 10.761581420898438, -0.3965606689453125, -0.754302978515625, 0.23602294921875, -320.635986328125, -33.11004638671875, -16.0186767578125, 216.95999145507812, 1.324418306350708, 0.23757082223892212, -0.8075084686279297, 0.6890396475791931, 0.6269996762275696, 9.765664100646973, 994.7836303710938, 0.004394435323774815, -0.05280546098947525, -0.6946185231208801, 87.0, -4.569290259919572, -4.007384257280963, android.sensor.magnetic_field
1551582140468, 0.915679931640625, 0.331939697265625, 9.329910278320312, -0.3965606689453125, -0.754302978515625, 0.23602294921875, -320.635986328125, -33.11004638671875, -16.0186767578125, 216.95999145507812, 1.324418306350708, 0.23757082223892212, -0.8075084686279297, 0.6890396475791931, 0.6269996762275696, 9.765664100646973, 994.7836303710938, 0.004394435323774815, -0.05280546098947525, -0.6946185231208801, 87.0, -4.569290259919572, -4.007384257280963, android.sensor.accelerometer
1551582140469, 0.915679931640625, 0.331939697265625, 9.329910278320312, -0.3965606689453125, -0.754302978515625, 0.23602294921875, -320.635986328125, -33.11004638671875, -16.0186767578125, 216.95999145507812, 1.324418306350708, 0.23757082223892212, -0.8075084686279297, 0.3811385929584503, 1.1946913003921509, 9.729519844055176, 994.7836303710938, 0.004394435323774815, -0.05280546098947525, -0.6946185231208801, 87.0, -4.569290259919572, -4.007384257280963, android.sensor.gravity
1551582140469, 0.915679931640625, 0.331939697265625, 9.329910278320312, -0.3965606689453125, -0.754302978515625, 0.23602294921875, -320.635986328125, -33.11004638671875, -16.0186767578125, 216.95999145507812, 1.324418306350708, 0.23757082223892212, -0.8075084686279297, 0.3811385929584503, 1.1946913003921509, 9.729519844055176, 994.7957153320312, 0.004394435323774815, -0.05280546098947525, -0.6946185231208801, 87.0, -4.569290259919572, -4.007384257280963, android.sensor.pressure
1551582140471, 0.915679931640625, 0.331939697265625, 9.329910278320312, 0.705780029296875, 0.400634765625, 0.02325439453125, -320.635986328125, -33.11004638671875, -16.0186767578125, 216.95999145507812, 1.324418306350708, 0.23757082223892212, -0.8075084686279297, 0.3811385929584503, 1.1946913003921509, 9.729519844055176, 994.7957153320312, 0.004394435323774815, -0.05280546098947525, -0.6946185231208801, 87.0, -4.569290259919572, -4.007384257280963, android.sensor.gyroscope
1551582140480, 0.915679931640625, 0.331939697265625, 9.329910278320312, 0.705780029296875, 0.400634765625, 0.02325439453125, -320.635986328125, -33.11004638671875, -16.0186767578125, 216.95999145507812, -0.9516416788101196, 1.6684867143630981, -0.24010562896728516, 0.3811385929584503, 1.1946913003921509, 9.729519844055176, 994.7957153320312, 0.004394435323774815, -0.05280546098947525, -0.6946185231208801, 87.0, -4.569290259919572, -4.007384257280963, android.sensor.linear_acceleration
1551582140485, 0.915679931640625, 0.331939697265625, 9.329910278320312, 0.705780029296875, 0.400634765625, 0.02325439453125, -320.635986328125, -33.11004638671875, -16.0186767578125, 216.95999145507812, -0.9516416788101196, 1.6684867143630981, -0.24010562896728516, 0.3811385929584503, 1.1946913003921509, 9.729519844055176, 994.7957153320312, 0.04986162111163139, -0.06423702090978622, -0.6916815042495728, 87.0, -9.23159574350367, -1.3478469058086906, android.sensor.rotation_vector
1551582140490, 0.915679931640625, 0.331939697265625, 9.329910278320312, 0.705780029296875, 0.400634765625, 0.02325439453125, -320.635986328125, -33.11004638671875, -16.0186767578125, 216.95999145507812, -0.9516416788101196, 1.6684867143630981, -0.24010562896728516, 0.3811385929584503, 1.1946913003921509, 9.729519844055176, 994.7957153320312, 0.04986162111163139, -0.06423702090978622, -0.6916815042495728, 87.0, -9.23159574350367, -1.3478469058086906, android.sensor.orientation
1551582140549, 0.915679931640625, 0.331939697265625, 9.329910278320312, 0.705780029296875, 0.400634765625, 0.02325439453125, -322.10693359375, -39.50042724609375, -13.4979248046875, 216.95999145507812, -0.9516416788101196, 1.6684867143630981, -0.24010562896728516, 0.3811385929584503, 1.1946913003921509, 9.729519844055176, 994.7957153320312, 0.04986162111163139, -0.06423702090978622, -0.6916815042495728, 87.0, -9.23159574350367, -1.3478469058086906, android.sensor.magnetic_field
1551582140568, 2.0756683349609375, -0.4902191162109375, 11.91387939453125, 0.705780029296875, 0.400634765625, 0.02325439453125, -322.10693359375, -39.50042724609375, -13.4979248046875, 216.95999145507812, -0.9516416788101196, 1.6684867143630981, -0.24010562896728516, 0.3811385929584503, 1.1946913003921509, 9.729519844055176, 994.7957153320312, 0.04986162111163139, -0.06423702090978622, -0.6916815042495728, 87.0, -9.23159574350367, -1.3478469058086906, android.sensor.accelerometer
1551582140568, 2.0756683349609375, -0.4902191162109375, 11.91387939453125, 0.705780029296875, 0.400634765625, 0.02325439453125, -322.10693359375, -39.50042724609375, -13.4979248046875, 216.95999145507812, -0.9516416788101196, 1.6684867143630981, -0.24010562896728516, 0.731856644153595, 2.572657823562622, 9.438322067260742, 994.7957153320312, 0.04986162111163139, -0.06423702090978622, -0.6916815042495728, 87.0, -9.23159574350367, -1.3478469058086906, android.sensor.gravity
1551582140570, 2.0756683349609375, -0.4902191162109375, 11.91387939453125, 1.4058074951171875, -0.5499420166015625, 0.056060791015625, -322.10693359375, -39.50042724609375, -13.4979248046875, 216.95999145507812, -0.9516416788101196, 1.6684867143630981, -0.24010562896728516, 0.731856644153595, 2.572657823562622, 9.438322067260742, 994.7957153320312, 0.04986162111163139, -0.06423702090978622, -0.6916815042495728, 87.0, -9.23159574350367, -1.3478469058086906, android.sensor.gyroscope
1551582140570, 2.0756683349609375, -0.4902191162109375, 11.91387939453125, 1.4058074951171875, -0.5499420166015625, 0.056060791015625, -322.10693359375, -39.50042724609375, -13.4979248046875, 216.95999145507812, -0.9516416788101196, 1.6684867143630981, -0.24010562896728516, 0.731856644153595, 2.572657823562622, 9.438322067260742, 994.7957153320312, 0.04986162111163139, -0.06423702090978622, -0.6916815042495728, 87.0, -9.23159574350367, -1.3478469058086906, android.sensor.pressure
1551582140581, 2.0756683349609375, -0.4902191162109375, 11.91387939453125, 1.4058074951171875, -0.5499420166015625, 0.056060791015625, -322.10693359375, -39.50042724609375, -13.4979248046875, 216.95999145507812, -1.4691253900527954, 2.7411606311798096, -3.0393857955932617, 0.731856644153595, 2.572657823562622, 9.438322067260742, 994.7957153320312, 0.04986162111163139, -0.06423702090978622, -0.6916815042495728, 87.0, -9.23159574350367, -1.3478469058086906, android.sensor.linear_acceleration
1551582140589, 2.0756683349609375, -0.4902191162109375, 11.91387939453125, 1.4058074951171875, -0.5499420166015625, 0.056060791015625, -322.10693359375, -39.50042724609375, -13.4979248046875, 216.95999145507812, -1.4691253900527954, 2.7411606311798096, -3.0393857955932617, 0.731856644153595, 2.572657823562622, 9.438322067260742, 994.7957153320312, 0.06964002549648285, -0.1328238844871521, -0.6904817819595337, 87.0, -16.378650195718006, -5.4912590761655125, android.sensor.rotation_vector
1551582140591, 2.0756683349609375, -0.4902191162109375, 11.91387939453125, 1.4058074951171875, -0.5499420166015625, 0.056060791015625, -322.10693359375, -39.50042724609375, -13.4979248046875, 216.95999145507812, -1.4691253900527954, 2.7411606311798096, -3.0393857955932617, 0.731856644153595, 2.572657823562622, 9.438322067260742, 994.7957153320312, 0.06964002549648285, -0.1328238844871521, -0.6904817819595337, 87.0, -16.378650195718006, -5.4912590761655125, android.sensor.orientation
1551582140631, 2.0756683349609375, -0.4902191162109375, 11.91387939453125, 1.4058074951171875, -0.5499420166015625, 0.056060791015625, -322.10693359375, -39.50042724609375, -13.4979248046875, 247.46998596191406, -1.4691253900527954, 2.7411606311798096, -3.0393857955932617, 0.731856644153595, 2.572657823562622, 9.438322067260742, 994.7957153320312, 0.06964002549648285, -0.1328238844871521, -0.6904817819595337, 87.0, -16.378650195718006, -5.4912590761655125, android.sensor.light
1551582140655, 2.0756683349609375, -0.4902191162109375, 11.91387939453125, 1.4058074951171875, -0.5499420166015625, 0.056060791015625, -327.26593017578125, -43.1304931640625, -10.6475830078125, 247.46998596191406, -1.4691253900527954, 2.7411606311798096, -3.0393857955932617, 0.731856644153595, 2.572657823562622, 9.438322067260742, 994.7957153320312, 0.06964002549648285, -0.1328238844871521, -0.6904817819595337, 87.0, -16.378650195718006, -5.4912590761655125, android.sensor.magnetic_field
1551582140665, 0.76239013671875, 0.7035064697265625, 9.0906982421875, 1.4058074951171875, -0.5499420166015625, 0.056060791015625, -327.26593017578125, -43.1304931640625, -10.6475830078125, 247.46998596191406, -1.4691253900527954, 2.7411606311798096, -3.0393857955932617, 0.731856644153595, 2.572657823562622, 9.438322067260742, 994.7957153320312, 0.06964002549648285, -0.1328238844871521, -0.6904817819595337, 87.0, -16.378650195718006, -5.4912590761655125, android.sensor.accelerometer
1551582140666, 0.76239013671875, 0.7035064697265625, 9.0906982421875, 1.4058074951171875, -0.5499420166015625, 0.056060791015625, -327.26593017578125, -43.1304931640625, -10.6475830078125, 247.46998596191406, -1.4691253900527954, 2.7411606311798096, -3.0393857955932617, 0.5184037089347839, 2.2514567375183105, 9.53406047821045, 994.7957153320312, 0.06964002549648285, -0.1328238844871521, -0.6904817819595337, 87.0, -16.378650195718006, -5.4912590761655125, android.sensor.gravity
1551582140670, 0.76239013671875, 0.7035064697265625, 9.0906982421875, -0.5432281494140625, 0.039306640625, -1.1132659912109375, -327.26593017578125, -43.1304931640625, -10.6475830078125, 247.46998596191406, -1.4691253900527954, 2.7411606311798096, -3.0393857955932617, 0.5184037089347839, 2.2514567375183105, 9.53406047821045, 994.7957153320312, 0.06964002549648285, -0.1328238844871521, -0.6904817819595337, 87.0, -16.378650195718006, -5.4912590761655125, android.sensor.gyroscope
1551582140671, 0.76239013671875, 0.7035064697265625, 9.0906982421875, -0.5432281494140625, 0.039306640625, -1.1132659912109375, -327.26593017578125, -43.1304931640625, -10.6475830078125, 247.46998596191406, -1.4691253900527954, 2.7411606311798096, -3.0393857955932617, 0.5184037089347839, 2.2514567375183105, 9.53406047821045, 994.802734375, 0.06964002549648285, -0.1328238844871521, -0.6904817819595337, 87.0, -16.378650195718006, -5.4912590761655125, android.sensor.pressure
1551582140680, 0.76239013671875, 0.7035064697265625, 9.0906982421875, -0.5432281494140625, 0.039306640625, -1.1132659912109375, -327.26593017578125, -43.1304931640625, -10.6475830078125, 247.46998596191406, 0.4024922847747803, 1.6157686710357666, 1.9160690307617188, 0.5184037089347839, 2.2514567375183105, 9.53406047821045, 994.802734375, 0.06964002549648285, -0.1328238844871521, -0.6904817819595337, 87.0, -16.378650195718006, -5.4912590761655125, android.sensor.linear_acceleration
1551582140683, 0.76239013671875, 0.7035064697265625, 9.0906982421875, -0.5432281494140625, 0.039306640625, -1.1132659912109375, -327.26593017578125, -43.1304931640625, -10.6475830078125, 247.46998596191406, 0.4024922847747803, 1.6157686710357666, 1.9160690307617188, 0.5184037089347839, 2.2514567375183105, 9.53406047821045, 994.802734375, 0.05983392894268036, -0.10551038384437561, -0.7317072749137878, 94.0, -13.57225438558035, -3.183204966929388, android.sensor.rotation_vector
1551582140688, 0.76239013671875, 0.7035064697265625, 9.0906982421875, -0.5432281494140625, 0.039306640625, -1.1132659912109375, -327.26593017578125, -43.1304931640625, -10.6475830078125, 247.46998596191406, 0.4024922847747803, 1.6157686710357666, 1.9160690307617188, 0.5184037089347839, 2.2514567375183105, 9.53406047821045, 994.802734375, 0.05983392894268036, -0.10551038384437561, -0.7317072749137878, 94.0, -13.57225438558035, -3.183204966929388, android.sensor.orientation
1551582140735, 0.76239013671875, 0.7035064697265625, 9.0906982421875, -0.5432281494140625, 0.039306640625, -1.1132659912109375, -327.26593017578125, -43.1304931640625, -10.6475830078125, 266.114990234375, 0.4024922847747803, 1.6157686710357666, 1.9160690307617188, 0.5184037089347839, 2.2514567375183105, 9.53406047821045, 994.802734375, 0.05983392894268036, -0.10551038384437561, -0.7317072749137878, 94.0, -13.57225438558035, -3.183204966929388, android.sensor.light
1551582140748, 0.76239013671875, 0.7035064697265625, 9.0906982421875, -0.5432281494140625, 0.039306640625, -1.1132659912109375, -328.6163330078125, -41.74957275390625, -7.4676513671875, 266.114990234375, 0.4024922847747803, 1.6157686710357666, 1.9160690307617188, 0.5184037089347839, 2.2514567375183105, 9.53406047821045, 994.802734375, 0.05983392894268036, -0.10551038384437561, -0.7317072749137878, 94.0, -13.57225438558035, -3.183204966929388, android.sensor.magnetic_field
1551582140764, -1.5403594970703125, 2.1880645751953125, 3.879241943359375, -0.5432281494140625, 0.039306640625, -1.1132659912109375, -328.6163330078125, -41.74957275390625, -7.4676513671875, 266.114990234375, 0.4024922847747803, 1.6157686710357666, 1.9160690307617188, 0.5184037089347839, 2.2514567375183105, 9.53406047821045, 994.802734375, 0.05983392894268036, -0.10551038384437561, -0.7317072749137878, 94.0, -13.57225438558035, -3.183204966929388, android.sensor.accelerometer
1551582140765, -1.5403594970703125, 2.1880645751953125, 3.879241943359375, -0.5432281494140625, 0.039306640625, -1.1132659912109375, -328.6163330078125, -41.74957275390625, -7.4676513671875, 266.114990234375, 0.4024922847747803, 1.6157686710357666, 1.9160690307617188, 0.17725315690040588, 2.313786268234253, 9.531583786010742, 994.802734375, 0.05983392894268036, -0.10551038384437561, -0.7317072749137878, 94.0, -13.57225438558035, -3.183204966929388, android.sensor.gravity
1551582140765, -1.5403594970703125, 2.1880645751953125, 3.879241943359375, 0.1146697998046875, 0.3418121337890625, -0.5109405517578125, -328.6163330078125, -41.74957275390625, -7.4676513671875, 266.114990234375, 0.4024922847747803, 1.6157686710357666, 1.9160690307617188, 0.17725315690040588, 2.313786268234253, 9.531583786010742, 994.802734375, 0.05983392894268036, -0.10551038384437561, -0.7317072749137878, 94.0, -13.57225438558035, -3.183204966929388, android.sensor.gyroscope
1551582140776, -1.5403594970703125, 2.1880645751953125, 3.879241943359375, 0.1146697998046875, 0.3418121337890625, -0.5109405517578125, -328.6163330078125, -41.74957275390625, -7.4676513671875, 266.114990234375, 0.4024922847747803, 1.6157686710357666, 1.9160690307617188, 0.17725315690040588, 2.313786268234253, 9.531583786010742, 994.802734375, 0.05983392894268036, -0.10551038384437561, -0.7317072749137878, 94.0, -13.57225438558035, -3.183204966929388, android.sensor.pressure
1551582140778, -1.5403594970703125, 2.1880645751953125, 3.879241943359375, 0.1146697998046875, 0.3418121337890625, -0.5109405517578125, -328.6163330078125, -41.74957275390625, -7.4676513671875, 266.114990234375, 1.6197768449783325, 0.30480122566223145, 5.59323787689209, 0.17725315690040588, 2.313786268234253, 9.531583786010742, 994.802734375, 0.05983392894268036, -0.10551038384437561, -0.7317072749137878, 94.0, -13.57225438558035, -3.183204966929388, android.sensor.linear_acceleration
1551582140782, -1.5403594970703125, 2.1880645751953125, 3.879241943359375, 0.1146697998046875, 0.3418121337890625, -0.5109405517578125, -328.6163330078125, -41.74957275390625, -7.4676513671875, 266.114990234375, 1.6197768449783325, 0.30480122566223145, 5.59323787689209, 0.17725315690040588, 2.313786268234253, 9.531583786010742, 994.802734375, 0.0837063416838646, -0.09554997086524963, -0.7432904243469238, 97.0, -14.595832511013986, -0.06380668674122691, android.sensor.rotation_vector
1551582140789, -1.5403594970703125, 2.1880645751953125, 3.879241943359375, 0.1146697998046875, 0.3418121337890625, -0.5109405517578125, -328.6163330078125, -41.74957275390625, -7.4676513671875, 266.114990234375, 1.6197768449783325, 0.30480122566223145, 5.59323787689209, 0.17725315690040588, 2.313786268234253, 9.531583786010742, 994.802734375, 0.0837063416838646, -0.09554997086524963, -0.7432904243469238, 97.0, -14.595832511013986, -0.06380668674122691, android.sensor.orientation
1551582140845, -1.5403594970703125, 2.1880645751953125, 3.879241943359375, 0.1146697998046875, 0.3418121337890625, -0.5109405517578125, -327.685546875, -41.14990234375, -4.76837158203125, 266.114990234375, 1.6197768449783325, 0.30480122566223145, 5.59323787689209, 0.17725315690040588, 2.313786268234253, 9.531583786010742, 994.802734375, 0.0837063416838646, -0.09554997086524963, -0.7432904243469238, 97.0, -14.595832511013986, -0.06380668674122691, android.sensor.magnetic_field
1551582140863, -2.261962890625, 1.3834686279296875, 9.140701293945312, 0.1146697998046875, 0.3418121337890625, -0.5109405517578125, -327.685546875, -41.14990234375, -4.76837158203125, 266.114990234375, 1.6197768449783325, 0.30480122566223145, 5.59323787689209, 0.17725315690040588, 2.313786268234253, 9.531583786010742, 994.802734375, 0.0837063416838646, -0.09554997086524963, -0.7432904243469238, 97.0, -14.595832511013986, -0.06380668674122691, android.sensor.accelerometer
1551582140863, -2.261962890625, 1.3834686279296875, 9.140701293945312, 0.1146697998046875, 0.3418121337890625, -0.5109405517578125, -327.685546875, -41.14990234375, -4.76837158203125, 266.114990234375, 1.6197768449783325, 0.30480122566223145, 5.59323787689209, -0.26164039969444275, 2.4908149242401123, 9.484909057617188, 994.802734375, 0.0837063416838646, -0.09554997086524963, -0.7432904243469238, 97.0, -14.595832511013986, -0.06380668674122691, android.sensor.gravity
1551582140864, -2.261962890625, 1.3834686279296875, 9.140701293945312, 0.2826385498046875, 0.402618408203125, 0.404510498046875, -327.685546875, -41.14990234375, -4.76837158203125, 266.114990234375, 1.6197768449783325, 0.30480122566223145, 5.59323787689209, -0.26164039969444275, 2.4908149242401123, 9.484909057617188, 994.802734375, 0.0837063416838646, -0.09554997086524963, -0.7432904243469238, 97.0, -14.595832511013986, -0.06380668674122691, android.sensor.gyroscope
1551582140882, -2.261962890625, 1.3834686279296875, 9.140701293945312, 0.2826385498046875, 0.402618408203125, 0.404510498046875, -327.685546875, -41.14990234375, -4.76837158203125, 266.114990234375, 1.6197768449783325, 0.30480122566223145, 5.59323787689209, -0.26164039969444275, 2.4908149242401123, 9.484909057617188, 994.8079833984375, 0.0837063416838646, -0.09554997086524963, -0.7432904243469238, 97.0, -14.595832511013986, -0.06380668674122691, android.sensor.pressure
1551582140882, -2.261962890625, 1.3834686279296875, 9.140701293945312, 0.2826385498046875, 0.402618408203125, 0.404510498046875, -327.685546875, -41.14990234375, -4.76837158203125, 266.114990234375, 1.6197768449783325, 0.30480122566223145, 5.59323787689209, -0.26164039969444275, 2.4908149242401123, 9.484909057617188, 994.8079833984375, 0.10473053902387619, -0.10405153036117554, -0.7228882908821106, 94.0, -16.967151247437354, 0.6556841797777667, android.sensor.rotation_vector
1551582140882, -2.261962890625, 1.3834686279296875, 9.140701293945312, 0.2826385498046875, 0.402618408203125, 0.404510498046875, -327.685546875, -41.14990234375, -4.76837158203125, 266.114990234375, 1.8258593082427979, 1.4930527210235596, -1.7611331939697266, -0.26164039969444275, 2.4908149242401123, 9.484909057617188, 994.8079833984375, 0.10473053902387619, -0.10405153036117554, -0.7228882908821106, 94.0, -16.967151247437354, 0.6556841797777667, android.sensor.linear_acceleration
1551582140883, -2.261962890625, 1.3834686279296875, 9.140701293945312, 0.2826385498046875, 0.402618408203125, 0.404510498046875, -327.685546875, -41.14990234375, -4.76837158203125, 266.114990234375, 1.8258593082427979, 1.4930527210235596, -1.7611331939697266, -0.26164039969444275, 2.4908149242401123, 9.484909057617188, 994.8079833984375, 0.10473053902387619, -0.10405153036117554, -0.7228882908821106, 94.0, -16.967151247437354, 0.6556841797777667, android.sensor.orientation
1551582140942, -2.261962890625, 1.3834686279296875, 9.140701293945312, 0.2826385498046875, 0.402618408203125, 0.404510498046875, -328.2562255859375, -41.63055419921875, -2.06756591796875, 266.114990234375, 1.8258593082427979, 1.4930527210235596, -1.7611331939697266, -0.26164039969444275, 2.4908149242401123, 9.484909057617188, 994.8079833984375, 0.10473053902387619, -0.10405153036117554, -0.7228882908821106, 94.0, -16.967151247437354, 0.6556841797777667, android.sensor.magnetic_field
1551582140956, -2.261962890625, 1.3834686279296875, 9.140701293945312, 0.2826385498046875, 0.402618408203125, 0.404510498046875, -328.2562255859375, -41.63055419921875, -2.06756591796875, 266.114990234375, 1.8258593082427979, 1.4930527210235596, -1.7611331939697266, 0.7421804070472717, 2.600391387939453, 9.429911613464355, 994.8079833984375, 0.10473053902387619, -0.10405153036117554, -0.7228882908821106, 94.0, -16.967151247437354, 0.6556841797777667, android.sensor.gravity
1551582140957, -0.3791961669921875, 1.3015594482421875, 16.687789916992188, 0.2826385498046875, 0.402618408203125, 0.404510498046875, -328.2562255859375, -41.63055419921875, -2.06756591796875, 266.114990234375, 1.8258593082427979, 1.4930527210235596, -1.7611331939697266, 0.7421804070472717, 2.600391387939453, 9.429911613464355, 994.8079833984375, 0.10473053902387619, -0.10405153036117554, -0.7228882908821106, 94.0, -16.967151247437354, 0.6556841797777667, android.sensor.accelerometer
1551582140960, -0.3791961669921875, 1.3015594482421875, 16.687789916992188, -0.2185211181640625, -0.9179229736328125, 0.3556365966796875, -328.2562255859375, -41.63055419921875, -2.06756591796875, 266.114990234375, 1.8258593082427979, 1.4930527210235596, -1.7611331939697266, 0.7421804070472717, 2.600391387939453, 9.429911613464355, 994.8079833984375, 0.10473053902387619, -0.10405153036117554, -0.7228882908821106, 94.0, -16.967151247437354, 0.6556841797777667, android.sensor.gyroscope
1551582140969, -0.3791961669921875, 1.3015594482421875, 16.687789916992188, -0.2185211181640625, -0.9179229736328125, 0.3556365966796875, -328.2562255859375, -41.63055419921875, -2.06756591796875, 266.114990234375, 0.9802481532096863, 1.8000309467315674, -7.269437789916992, 0.7421804070472717, 2.600391387939453, 9.429911613464355, 994.8079833984375, 0.10473053902387619, -0.10405153036117554, -0.7228882908821106, 94.0, -16.967151247437354, 0.6556841797777667, android.sensor.linear_acceleration
1551582140969, -0.3791961669921875, 1.3015594482421875, 16.687789916992188, -0.2185211181640625, -0.9179229736328125, 0.3556365966796875, -328.2562255859375, -41.63055419921875, -2.06756591796875, 266.114990234375, 0.9802481532096863, 1.8000309467315674, -7.269437789916992, 0.7421804070472717, 2.600391387939453, 9.429911613464355, 994.81591796875, 0.10473053902387619, -0.10405153036117554, -0.7228882908821106, 94.0, -16.967151247437354, 0.6556841797777667, android.sensor.pressure
1551582140975, -0.3791961669921875, 1.3015594482421875, 16.687789916992188, -0.2185211181640625, -0.9179229736328125, 0.3556365966796875, -328.2562255859375, -41.63055419921875, -2.06756591796875, 266.114990234375, 0.9802481532096863, 1.8000309467315674, -7.269437789916992, 0.7421804070472717, 2.600391387939453, 9.429911613464355, 994.81591796875, 0.05677037313580513, -0.11528917402029037, -0.7239841818809509, 93.0, -14.116024528425283, -4.380341187380809, android.sensor.rotation_vector
1551582140980, -0.3791961669921875, 1.3015594482421875, 16.687789916992188, -0.2185211181640625, -0.9179229736328125, 0.3556365966796875, -328.2562255859375, -41.63055419921875, -2.06756591796875, 266.114990234375, 0.9802481532096863, 1.8000309467315674, -7.269437789916992, 0.7421804070472717, 2.600391387939453, 9.429911613464355, 994.81591796875, 0.05677037313580513, -0.11528917402029037, -0.7239841818809509, 93.0, -14.116024528425283, -4.380341187380809, android.sensor.orientation
1551582141037, -0.3791961669921875, 1.3015594482421875, 16.687789916992188, -0.2185211181640625, -0.9179229736328125, 0.3556365966796875, -328.2562255859375, -41.63055419921875, -2.06756591796875, 194.07798767089844, 0.9802481532096863, 1.8000309467315674, -7.269437789916992, 0.7421804070472717, 2.600391387939453, 9.429911613464355, 994.81591796875, 0.05677037313580513, -0.11528917402029037, -0.7239841818809509, 93.0, -14.116024528425283, -4.380341187380809, android.sensor.light
1551582141037, -0.3791961669921875, 1.3015594482421875, 16.687789916992188, -0.2185211181640625, -0.9179229736328125, 0.3556365966796875, -329.93621826171875, -39.410400390625, -1.37786865234375, 194.07798767089844, 0.9802481532096863, 1.8000309467315674, -7.269437789916992, 0.7421804070472717, 2.600391387939453, 9.429911613464355, 994.81591796875, 0.05677037313580513, -0.11528917402029037, -0.7239841818809509, 93.0, -14.116024528425283, -4.380341187380809, android.sensor.magnetic_field
1551582141051, -0.0973968505859375, -1.2433013916015625, 8.134323120117188, -0.2185211181640625, -0.9179229736328125, 0.3556365966796875, -329.93621826171875, -39.410400390625, -1.37786865234375, 194.07798767089844, 0.9802481532096863, 1.8000309467315674, -7.269437789916992, 0.7421804070472717, 2.600391387939453, 9.429911613464355, 994.81591796875, 0.05677037313580513, -0.11528917402029037, -0.7239841818809509, 93.0, -14.116024528425283, -4.380341187380809, android.sensor.accelerometer
1551582141051, -0.0973968505859375, -1.2433013916015625, 8.134323120117188, -0.2185211181640625, -0.9179229736328125, 0.3556365966796875, -329.93621826171875, -39.410400390625, -1.37786865234375, 194.07798767089844, 0.9802481532096863, 1.8000309467315674, -7.269437789916992, 1.5738329887390137, 2.259234666824341, 9.415678977966309, 994.81591796875, 0.05677037313580513, -0.11528917402029037, -0.7239841818809509, 93.0, -14.116024528425283, -4.380341187380809, android.sensor.gravity
1551582141056, -0.0973968505859375, -1.2433013916015625, 8.134323120117188, -0.192657470703125, -0.88873291015625, 0.1833038330078125, -329.93621826171875, -39.410400390625, -1.37786865234375, 194.07798767089844, 0.9802481532096863, 1.8000309467315674, -7.269437789916992, 1.5738329887390137, 2.259234666824341, 9.415678977966309, 994.81591796875, 0.05677037313580513, -0.11528917402029037, -0.7239841818809509, 93.0, -14.116024528425283, -4.380341187380809, android.sensor.gyroscope
1551582141065, -0.0973968505859375, -1.2433013916015625, 8.134323120117188, -0.192657470703125, -0.88873291015625, 0.1833038330078125, -329.93621826171875, -39.410400390625, -1.37786865234375, 194.07798767089844, 1.4965933561325073, 3.0414090156555176, 2.2262086868286133, 1.5738329887390137, 2.259234666824341, 9.415678977966309, 994.81591796875, 0.05677037313580513, -0.11528917402029037, -0.7239841818809509, 93.0, -14.116024528425283, -4.380341187380809, android.sensor.linear_acceleration
1551582141067, -0.0973968505859375, -1.2433013916015625, 8.134323120117188, -0.192657470703125, -0.88873291015625, 0.1833038330078125, -329.93621826171875, -39.410400390625, -1.37786865234375, 194.07798767089844, 1.4965933561325073, 3.0414090156555176, 2.2262086868286133, 1.5738329887390137, 2.259234666824341, 9.415678977966309, 994.81591796875, 0.05677037313580513, -0.11528917402029037, -0.7239841818809509, 93.0, -14.116024528425283, -4.380341187380809, android.sensor.pressure
1551582141071, -0.0973968505859375, -1.2433013916015625, 8.134323120117188, -0.192657470703125, -0.88873291015625, 0.1833038330078125, -329.93621826171875, -39.410400390625, -1.37786865234375, 194.07798767089844, 1.4965933561325073, 3.0414090156555176, 2.2262086868286133, 1.5738329887390137, 2.259234666824341, 9.415678977966309, 994.81591796875, 0.021631499752402306, -0.1404578536748886, -0.7188418507575989, 92.0, -13.377985022564971, -9.469714067216886, android.sensor.rotation_vector
1551582141080, -0.0973968505859375, -1.2433013916015625, 8.134323120117188, -0.192657470703125, -0.88873291015625, 0.1833038330078125, -329.93621826171875, -39.410400390625, -1.37786865234375, 194.07798767089844, 1.4965933561325073, 3.0414090156555176, 2.2262086868286133, 1.5738329887390137, 2.259234666824341, 9.415678977966309, 994.81591796875, 0.021631499752402306, -0.1404578536748886, -0.7188418507575989, 92.0, -13.377985022564971, -9.469714067216886, android.sensor.orientation
1551582141142, -0.0973968505859375, -1.2433013916015625, 8.134323120117188, -0.192657470703125, -0.88873291015625, 0.1833038330078125, -331.16607666015625, -38.330078125, -0.86822509765625, 194.07798767089844, 1.4965933561325073, 3.0414090156555176, 2.2262086868286133, 1.5738329887390137, 2.259234666824341, 9.415678977966309, 994.81591796875, 0.021631499752402306, -0.1404578536748886, -0.7188418507575989, 92.0, -13.377985022564971, -9.469714067216886, android.sensor.magnetic_field
1551582141146, -0.0973968505859375, -1.2433013916015625, 8.134323120117188, -0.192657470703125, -0.88873291015625, 0.1833038330078125, -331.16607666015625, -38.330078125, -0.86822509765625, 161.02499389648438, 1.4965933561325073, 3.0414090156555176, 2.2262086868286133, 1.5738329887390137, 2.259234666824341, 9.415678977966309, 994.81591796875, 0.021631499752402306, -0.1404578536748886, -0.7188418507575989, 92.0, -13.377985022564971, -9.469714067216886, android.sensor.light
1551582141152, -0.0973968505859375, -1.2433013916015625, 8.134323120117188, -0.192657470703125, -0.88873291015625, 0.1833038330078125, -331.16607666015625, -38.330078125, -0.86822509765625, 161.02499389648438, 1.4965933561325073, 3.0414090156555176, 2.2262086868286133, 1.1833231449127197, 2.1668202877044678, 9.494248390197754, 994.81591796875, 0.021631499752402306, -0.1404578536748886, -0.7188418507575989, 92.0, -13.377985022564971, -9.469714067216886, android.sensor.gravity
1551582141152, 0.4298858642578125, -0.0255889892578125, 5.5943450927734375, -0.192657470703125, -0.88873291015625, 0.1833038330078125, -331.16607666015625, -38.330078125, -0.86822509765625, 161.02499389648438, 1.4965933561325073, 3.0414090156555176, 2.2262086868286133, 1.1833231449127197, 2.1668202877044678, 9.494248390197754, 994.81591796875, 0.021631499752402306, -0.1404578536748886, -0.7188418507575989, 92.0, -13.377985022564971, -9.469714067216886, android.sensor.accelerometer
1551582141156, 0.4298858642578125, -0.0255889892578125, 5.5943450927734375, -0.01666259765625, 0.4840240478515625, 0.0019073486328125, -331.16607666015625, -38.330078125, -0.86822509765625, 161.02499389648438, 1.4965933561325073, 3.0414090156555176, 2.2262086868286133, 1.1833231449127197, 2.1668202877044678, 9.494248390197754, 994.81591796875, 0.021631499752402306, -0.1404578536748886, -0.7188418507575989, 92.0, -13.377985022564971, -9.469714067216886, android.sensor.gyroscope
1551582141166, 0.4298858642578125, -0.0255889892578125, 5.5943450927734375, -0.01666259765625, 0.4840240478515625, 0.0019073486328125, -331.16607666015625, -38.330078125, -0.86822509765625, 161.02499389648438, 0.5658270120620728, 2.6806321144104004, 3.63016414642334, 1.1833231449127197, 2.1668202877044678, 9.494248390197754, 994.81591796875, 0.021631499752402306, -0.1404578536748886, -0.7188418507575989, 92.0, -13.377985022564971, -9.469714067216886, android.sensor.linear_acceleration
1551582141170, 0.4298858642578125, -0.0255889892578125, 5.5943450927734375, -0.01666259765625, 0.4840240478515625, 0.0019073486328125, -331.16607666015625, -38.330078125, -0.86822509765625, 161.02499389648438, 0.5658270120620728, 2.6806321144104004, 3.63016414642334, 1.1833231449127197, 2.1668202877044678, 9.494248390197754, 994.81591796875, 0.041517578065395355, -0.1269272416830063, -0.7156481146812439, 91.0, -13.803769623913457, -6.777906206350419, android.sensor.rotation_vector
1551582141171, 0.4298858642578125, -0.0255889892578125, 5.5943450927734375, -0.01666259765625, 0.4840240478515625, 0.0019073486328125, -331.16607666015625, -38.330078125, -0.86822509765625, 161.02499389648438, 0.5658270120620728, 2.6806321144104004, 3.63016414642334, 1.1833231449127197, 2.1668202877044678, 9.494248390197754, 994.814697265625, 0.041517578065395355, -0.1269272416830063, -0.7156481146812439, 91.0, -13.803769623913457, -6.777906206350419, android.sensor.pressure
1551582141176, 0.4298858642578125, -0.0255889892578125, 5.5943450927734375, -0.01666259765625, 0.4840240478515625, 0.0019073486328125, -331.16607666015625, -38.330078125, -0.86822509765625, 161.02499389648438, 0.5658270120620728, 2.6806321144104004, 3.63016414642334, 1.1833231449127197, 2.1668202877044678, 9.494248390197754, 994.814697265625, 0.041517578065395355, -0.1269272416830063, -0.7156481146812439, 91.0, -13.803769623913457, -6.777906206350419, android.sensor.orientation
1551582141239, 0.4298858642578125, -0.0255889892578125, 5.5943450927734375, -0.01666259765625, 0.4840240478515625, 0.0019073486328125, -331.34613037109375, -37.1307373046875, -0.50811767578125, 161.02499389648438, 0.5658270120620728, 2.6806321144104004, 3.63016414642334, 1.1833231449127197, 2.1668202877044678, 9.494248390197754, 994.814697265625, 0.041517578065395355, -0.1269272416830063, -0.7156481146812439, 91.0, -13.803769623913457, -6.777906206350419, android.sensor.magnetic_field
1551582141251, 0.4298858642578125, -0.0255889892578125, 5.5943450927734375, -0.01666259765625, 0.4840240478515625, 0.0019073486328125, -331.34613037109375, -37.1307373046875, -0.50811767578125, 141.53298950195312, 0.5658270120620728, 2.6806321144104004, 3.63016414642334, 1.1833231449127197, 2.1668202877044678, 9.494248390197754, 994.814697265625, 0.041517578065395355, -0.1269272416830063, -0.7156481146812439, 91.0, -13.803769623913457, -6.777906206350419, android.sensor.light
1551582141252, 2.3296356201171875, -0.077606201171875, 11.1142578125, -0.01666259765625, 0.4840240478515625, 0.0019073486328125, -331.34613037109375, -37.1307373046875, -0.50811767578125, 141.53298950195312, 0.5658270120620728, 2.6806321144104004, 3.63016414642334, 1.1833231449127197, 2.1668202877044678, 9.494248390197754, 994.814697265625, 0.041517578065395355, -0.1269272416830063, -0.7156481146812439, 91.0, -13.803769623913457, -6.777906206350419, android.sensor.accelerometer
1551582141252, 2.3296356201171875, -0.077606201171875, 11.1142578125, -0.01666259765625, 0.4840240478515625, 0.0019073486328125, -331.34613037109375, -37.1307373046875, -0.50811767578125, 141.53298950195312, 0.5658270120620728, 2.6806321144104004, 3.63016414642334, 0.8855973482131958, 2.9538934230804443, 9.312698364257812, 994.814697265625, 0.041517578065395355, -0.1269272416830063, -0.7156481146812439, 91.0, -13.803769623913457, -6.777906206350419, android.sensor.gravity
1551582141255, 2.3296356201171875, -0.077606201171875, 11.1142578125, 0.9117584228515625, 0.4539642333984375, 0.3666839599609375, -331.34613037109375, -37.1307373046875, -0.50811767578125, 141.53298950195312, 0.5658270120620728, 2.6806321144104004, 3.63016414642334, 0.8855973482131958, 2.9538934230804443, 9.312698364257812, 994.814697265625, 0.041517578065395355, -0.1269272416830063, -0.7156481146812439, 91.0, -13.803769623913457, -6.777906206350419, android.sensor.gyroscope
1551582141266, 2.3296356201171875, -0.077606201171875, 11.1142578125, 0.9117584228515625, 0.4539642333984375, 0.3666839599609375, -331.34613037109375, -37.1307373046875, -0.50811767578125, 141.53298950195312, -1.7123916149139404, 2.8203704357147217, -2.6828622817993164, 0.8855973482131958, 2.9538934230804443, 9.312698364257812, 994.814697265625, 0.041517578065395355, -0.1269272416830063, -0.7156481146812439, 91.0, -13.803769623913457, -6.777906206350419, android.sensor.linear_acceleration
1551582141269, 2.3296356201171875, -0.077606201171875, 11.1142578125, 0.9117584228515625, 0.4539642333984375, 0.3666839599609375, -331.34613037109375, -37.1307373046875, -0.50811767578125, 141.53298950195312, -1.7123916149139404, 2.8203704357147217, -2.6828622817993164, 0.8855973482131958, 2.9538934230804443, 9.312698364257812, 994.814697265625, 0.08666166663169861, -0.14352728426456451, -0.6975254416465759, 89.0, -18.722014675415803, -4.7899510470010584, android.sensor.rotation_vector
1551582141272, 2.3296356201171875, -0.077606201171875, 11.1142578125, 0.9117584228515625, 0.4539642333984375, 0.3666839599609375, -331.34613037109375, -37.1307373046875, -0.50811767578125, 141.53298950195312, -1.7123916149139404, 2.8203704357147217, -2.6828622817993164, 0.8855973482131958, 2.9538934230804443, 9.312698364257812, 994.8148803710938, 0.08666166663169861, -0.14352728426456451, -0.6975254416465759, 89.0, -18.722014675415803, -4.7899510470010584, android.sensor.pressure
1551582141274, 2.3296356201171875, -0.077606201171875, 11.1142578125, 0.9117584228515625, 0.4539642333984375, 0.3666839599609375, -331.34613037109375, -37.1307373046875, -0.50811767578125, 141.53298950195312, -1.7123916149139404, 2.8203704357147217, -2.6828622817993164, 0.8855973482131958, 2.9538934230804443, 9.312698364257812, 994.8148803710938, 0.08666166663169861, -0.14352728426456451, -0.6975254416465759, 89.0, -18.722014675415803, -4.7899510470010584, android.sensor.orientation
1551582141332, 2.3296356201171875, -0.077606201171875, 11.1142578125, 0.9117584228515625, 0.4539642333984375, 0.3666839599609375, -330.89752197265625, -37.15972900390625, -1.1688232421875, 141.53298950195312, -1.7123916149139404, 2.8203704357147217, -2.6828622817993164, 0.8855973482131958, 2.9538934230804443, 9.312698364257812, 994.8148803710938, 0.08666166663169861, -0.14352728426456451, -0.6975254416465759, 89.0, -18.722014675415803, -4.7899510470010584, android.sensor.magnetic_field
1551582141345, 2.3296356201171875, -0.077606201171875, 11.1142578125, 0.9117584228515625, 0.4539642333984375, 0.3666839599609375, -330.89752197265625, -37.15972900390625, -1.1688232421875, 141.53298950195312, -1.7123916149139404, 2.8203704357147217, -2.6828622817993164, 1.0688871145248413, 2.9329891204833984, 9.300063133239746, 994.8148803710938, 0.08666166663169861, -0.14352728426456451, -0.6975254416465759, 89.0, -18.722014675415803, -4.7899510470010584, android.sensor.gravity
1551582141346, 1.3132781982421875, 0.981048583984375, 13.20947265625, 0.9117584228515625, 0.4539642333984375, 0.3666839599609375, -330.89752197265625, -37.15972900390625, -1.1688232421875, 141.53298950195312, -1.7123916149139404, 2.8203704357147217, -2.6828622817993164, 1.0688871145248413, 2.9329891204833984, 9.300063133239746, 994.8148803710938, 0.08666166663169861, -0.14352728426456451, -0.6975254416465759, 89.0, -18.722014675415803, -4.7899510470010584, android.sensor.accelerometer
1551582141352, 1.3132781982421875, 0.981048583984375, 13.20947265625, -0.266082763671875, -0.392822265625, -0.5020294189453125, -330.89752197265625, -37.15972900390625, -1.1688232421875, 141.53298950195312, -1.7123916149139404, 2.8203704357147217, -2.6828622817993164, 1.0688871145248413, 2.9329891204833984, 9.300063133239746, 994.8148803710938, 0.08666166663169861, -0.14352728426456451, -0.6975254416465759, 89.0, -18.722014675415803, -4.7899510470010584, android.sensor.gyroscope
1551582141361, 1.3132781982421875, 0.981048583984375, 13.20947265625, -0.266082763671875, -0.392822265625, -0.5020294189453125, -330.89752197265625, -37.15972900390625, -1.1688232421875, 141.53298950195312, -0.22670209407806396, 2.157630443572998, -3.78463077545166, 1.0688871145248413, 2.9329891204833984, 9.300063133239746, 994.8148803710938, 0.08666166663169861, -0.14352728426456451, -0.6975254416465759, 89.0, -18.722014675415803, -4.7899510470010584, android.sensor.linear_acceleration
1551582141365, 1.3132781982421875, 0.981048583984375, 13.20947265625, -0.266082763671875, -0.392822265625, -0.5020294189453125, -330.89752197265625, -37.15972900390625, -1.1688232421875, 141.53298950195312, -0.22670209407806396, 2.157630443572998, -3.78463077545166, 1.0688871145248413, 2.9329891204833984, 9.300063133239746, 994.8148803710938, 0.06316736340522766, -0.14051418006420135, -0.7214160561561584, 92.0, -16.74023187264202, -5.909599625092331, android.sensor.rotation_vector
1551582141369, 1.3132781982421875, 0.981048583984375, 13.20947265625, -0.266082763671875, -0.392822265625, -0.5020294189453125, -330.89752197265625, -37.15972900390625, -1.1688232421875, 141.53298950195312, -0.22670209407806396, 2.157630443572998, -3.78463077545166, 1.0688871145248413, 2.9329891204833984, 9.300063133239746, 994.8148803710938, 0.06316736340522766, -0.14051418006420135, -0.7214160561561584, 92.0, -16.74023187264202, -5.909599625092331, android.sensor.pressure
1551582141371, 1.3132781982421875, 0.981048583984375, 13.20947265625, -0.266082763671875, -0.392822265625, -0.5020294189453125, -330.89752197265625, -37.15972900390625, -1.1688232421875, 141.53298950195312, -0.22670209407806396, 2.157630443572998, -3.78463077545166, 1.0688871145248413, 2.9329891204833984, 9.300063133239746, 994.8148803710938, 0.06316736340522766, -0.14051418006420135, -0.7214160561561584, 92.0, -16.74023187264202, -5.909599625092331, android.sensor.orientation
1551582141433, 1.3132781982421875, 0.981048583984375, 13.20947265625, -0.266082763671875, -0.392822265625, -0.5020294189453125, -332.45697021484375, -36.0198974609375, -4.3182373046875, 141.53298950195312, -0.22670209407806396, 2.157630443572998, -3.78463077545166, 1.0688871145248413, 2.9329891204833984, 9.300063133239746, 994.8148803710938, 0.06316736340522766, -0.14051418006420135, -0.7214160561561584, 92.0, -16.74023187264202, -5.909599625092331, android.sensor.magnetic_field
1551582141446, 1.3132781982421875, 0.981048583984375, 13.20947265625, -0.266082763671875, -0.392822265625, -0.5020294189453125, -332.45697021484375, -36.0198974609375, -4.3182373046875, 141.53298950195312, -0.22670209407806396, 2.157630443572998, -3.78463077545166, 0.7122815251350403, 2.404294729232788, 9.484098434448242, 994.8148803710938, 0.06316736340522766, -0.14051418006420135, -0.7214160561561584, 92.0, -16.74023187264202, -5.909599625092331, android.sensor.gravity
1551582141446, -0.9022369384765625, 1.3585357666015625, 5.832611083984375, -0.266082763671875, -0.392822265625, -0.5020294189453125, -332.45697021484375, -36.0198974609375, -4.3182373046875, 141.53298950195312, -0.22670209407806396, 2.157630443572998, -3.78463077545166, 0.7122815251350403, 2.404294729232788, 9.484098434448242, 994.8148803710938, 0.06316736340522766, -0.14051418006420135, -0.7214160561561584, 92.0, -16.74023187264202, -5.909599625092331, android.sensor.accelerometer
1551582141451, -0.9022369384765625, 1.3585357666015625, 5.832611083984375, -0.624542236328125, 0.223846435546875, -0.523681640625, -332.45697021484375, -36.0198974609375, -4.3182373046875, 141.53298950195312, -0.22670209407806396, 2.157630443572998, -3.78463077545166, 0.7122815251350403, 2.404294729232788, 9.484098434448242, 994.8148803710938, 0.06316736340522766, -0.14051418006420135, -0.7214160561561584, 92.0, -16.74023187264202, -5.909599625092331, android.sensor.gyroscope
1551582141460, -0.9022369384765625, 1.3585357666015625, 5.832611083984375, -0.624542236328125, 0.223846435546875, -0.523681640625, -332.45697021484375, -36.0198974609375, -4.3182373046875, 141.53298950195312, 1.908148169517517, 0.5727050304412842, 4.721902847290039, 0.7122815251350403, 2.404294729232788, 9.484098434448242, 994.8148803710938, 0.06316736340522766, -0.14051418006420135, -0.7214160561561584, 92.0, -16.74023187264202, -5.909599625092331, android.sensor.linear_acceleration
1551582141462, -0.9022369384765625, 1.3585357666015625, 5.832611083984375, -0.624542236328125, 0.223846435546875, -0.523681640625, -332.45697021484375, -36.0198974609375, -4.3182373046875, 141.53298950195312, 1.908148169517517, 0.5727050304412842, 4.721902847290039, 0.7122815251350403, 2.404294729232788, 9.484098434448242, 994.8148803710938, 0.052672166377305984, -0.10977175086736679, -0.7397271394729614, 95.0, -13.42186984175595, -3.971460023567635, android.sensor.rotation_vector
1551582141471, -0.9022369384765625, 1.3585357666015625, 5.832611083984375, -0.624542236328125, 0.223846435546875, -0.523681640625, -332.45697021484375, -36.0198974609375, -4.3182373046875, 141.53298950195312, 1.908148169517517, 0.5727050304412842, 4.721902847290039, 0.7122815251350403, 2.404294729232788, 9.484098434448242, 994.8148803710938, 0.052672166377305984, -0.10977175086736679, -0.7397271394729614, 95.0, -13.42186984175595, -3.971460023567635, android.sensor.orientation
1551582141471, -0.9022369384765625, 1.3585357666015625, 5.832611083984375, -0.624542236328125, 0.223846435546875, -0.523681640625, -332.45697021484375, -36.0198974609375, -4.3182373046875, 141.53298950195312, 1.908148169517517, 0.5727050304412842, 4.721902847290039, 0.7122815251350403, 2.404294729232788, 9.484098434448242, 994.81201171875, 0.052672166377305984, -0.10977175086736679, -0.7397271394729614, 95.0, -13.42186984175595, -3.971460023567635, android.sensor.pressure
1551582141524, -0.9022369384765625, 1.3585357666015625, 5.832611083984375, -0.624542236328125, 0.223846435546875, -0.523681640625, -331.58721923828125, -34.19036865234375, -7.4676513671875, 141.53298950195312, 1.908148169517517, 0.5727050304412842, 4.721902847290039, 0.7122815251350403, 2.404294729232788, 9.484098434448242, 994.81201171875, 0.052672166377305984, -0.10977175086736679, -0.7397271394729614, 95.0, -13.42186984175595, -3.971460023567635, android.sensor.magnetic_field
1551582141539, -1.510650634765625, 3.04656982421875, 7.88189697265625, -0.624542236328125, 0.223846435546875, -0.523681640625, -331.58721923828125, -34.19036865234375, -7.4676513671875, 141.53298950195312, 1.908148169517517, 0.5727050304412842, 4.721902847290039, 0.7122815251350403, 2.404294729232788, 9.484098434448242, 994.81201171875, 0.052672166377305984, -0.10977175086736679, -0.7397271394729614, 95.0, -13.42186984175595, -3.971460023567635, android.sensor.accelerometer
1551582141539, -1.510650634765625, 3.04656982421875, 7.88189697265625, -0.624542236328125, 0.223846435546875, -0.523681640625, -331.58721923828125, -34.19036865234375, -7.4676513671875, 141.53298950195312, 1.908148169517517, 0.5727050304412842, 4.721902847290039, 0.8143696784973145, 1.947675108909607, 9.580160140991211, 994.81201171875, 0.052672166377305984, -0.10977175086736679, -0.7397271394729614, 95.0, -13.42186984175595, -3.971460023567635, android.sensor.gravity
1551582141544, -1.510650634765625, 3.04656982421875, 7.88189697265625, -0.3365478515625, -0.107208251953125, -0.199737548828125, -331.58721923828125, -34.19036865234375, -7.4676513671875, 141.53298950195312, 1.908148169517517, 0.5727050304412842, 4.721902847290039, 0.8143696784973145, 1.947675108909607, 9.580160140991211, 994.81201171875, 0.052672166377305984, -0.10977175086736679, -0.7397271394729614, 95.0, -13.42186984175595, -3.971460023567635, android.sensor.gyroscope
1551582141554, -1.510650634765625, 3.04656982421875, 7.88189697265625, -0.3365478515625, -0.107208251953125, -0.199737548828125, -331.58721923828125, -34.19036865234375, -7.4676513671875, 141.53298950195312, 2.0510425567626953, -0.7905721664428711, 0.15861034393310547, 0.8143696784973145, 1.947675108909607, 9.580160140991211, 994.81201171875, 0.052672166377305984, -0.10977175086736679, -0.7397271394729614, 95.0, -13.42186984175595, -3.971460023567635, android.sensor.linear_acceleration
1551582141559, -1.510650634765625, 3.04656982421875, 7.88189697265625, -0.3365478515625, -0.107208251953125, -0.199737548828125, -331.58721923828125, -34.19036865234375, -7.4676513671875, 141.53298950195312, 2.0510425567626953, -0.7905721664428711, 0.15861034393310547, 0.8143696784973145, 1.947675108909607, 9.580160140991211, 994.81201171875, 0.046823900192976, -0.10459014028310776, -0.7452307343482971, 96.0, -12.556575373921836, -3.9723697193877157, android.sensor.rotation_vector
1551582141564, -1.510650634765625, 3.04656982421875, 7.88189697265625, -0.3365478515625, -0.107208251953125, -0.199737548828125, -331.58721923828125, -34.19036865234375, -7.4676513671875, 141.53298950195312, 2.0510425567626953, -0.7905721664428711, 0.15861034393310547, 0.8143696784973145, 1.947675108909607, 9.580160140991211, 994.81201171875, 0.046823900192976, -0.10459014028310776, -0.7452307343482971, 96.0, -12.556575373921836, -3.9723697193877157, android.sensor.orientation
1551582141567, -1.510650634765625, 3.04656982421875, 7.88189697265625, -0.3365478515625, -0.107208251953125, -0.199737548828125, -331.58721923828125, -34.19036865234375, -7.4676513671875, 141.53298950195312, 2.0510425567626953, -0.7905721664428711, 0.15861034393310547, 0.8143696784973145, 1.947675108909607, 9.580160140991211, 994.81201171875, 0.046823900192976, -0.10459014028310776, -0.7452307343482971, 96.0, -12.556575373921836, -3.9723697193877157, android.sensor.pressure
1551582141624, -1.510650634765625, 3.04656982421875, 7.88189697265625, -0.3365478515625, -0.107208251953125, -0.199737548828125, -329.78668212890625, -36.38153076171875, -12.23907470703125, 141.53298950195312, 2.0510425567626953, -0.7905721664428711, 0.15861034393310547, 0.8143696784973145, 1.947675108909607, 9.580160140991211, 994.81201171875, 0.046823900192976, -0.10459014028310776, -0.7452307343482971, 96.0, -12.556575373921836, -3.9723697193877157, android.sensor.magnetic_field
1551582141643, -0.08465576171875, 0.358062744140625, 13.734298706054688, -0.3365478515625, -0.107208251953125, -0.199737548828125, -329.78668212890625, -36.38153076171875, -12.23907470703125, 141.53298950195312, 2.0510425567626953, -0.7905721664428711, 0.15861034393310547, 0.8143696784973145, 1.947675108909607, 9.580160140991211, 994.81201171875, 0.046823900192976, -0.10459014028310776, -0.7452307343482971, 96.0, -12.556575373921836, -3.9723697193877157, android.sensor.accelerometer
1551582141643, -0.08465576171875, 0.358062744140625, 13.734298706054688, -0.3365478515625, -0.107208251953125, -0.199737548828125, -329.78668212890625, -36.38153076171875, -12.23907470703125, 141.53298950195312, 2.0510425567626953, -0.7905721664428711, 0.15861034393310547, 0.5256480574607849, 2.858438730239868, 9.369585037231445, 994.81201171875, 0.046823900192976, -0.10459014028310776, -0.7452307343482971, 96.0, -12.556575373921836, -3.9723697193877157, android.sensor.gravity
1551582141644, -0.08465576171875, 0.358062744140625, 13.734298706054688, 0.9744720458984375, 0.472900390625, 0.7506866455078125, -329.78668212890625, -36.38153076171875, -12.23907470703125, 141.53298950195312, 2.0510425567626953, -0.7905721664428711, 0.15861034393310547, 0.5256480574607849, 2.858438730239868, 9.369585037231445, 994.81201171875, 0.046823900192976, -0.10459014028310776, -0.7452307343482971, 96.0, -12.556575373921836, -3.9723697193877157, android.sensor.gyroscope
1551582141656, -0.08465576171875, 0.358062744140625, 13.734298706054688, 0.9744720458984375, 0.472900390625, 0.7506866455078125, -329.78668212890625, -36.38153076171875, -12.23907470703125, 141.53298950195312, 0.37535446882247925, 3.151165008544922, -4.403470039367676, 0.5256480574607849, 2.858438730239868, 9.369585037231445, 994.81201171875, 0.046823900192976, -0.10459014028310776, -0.7452307343482971, 96.0, -12.556575373921836, -3.9723697193877157, android.sensor.linear_acceleration
1551582141660, -0.08465576171875, 0.358062744140625, 13.734298706054688, 0.9744720458984375, 0.472900390625, 0.7506866455078125, -329.78668212890625, -36.38153076171875, -12.23907470703125, 141.53298950195312, 0.37535446882247925, 3.151165008544922, -4.403470039367676, 0.5256480574607849, 2.858438730239868, 9.369585037231445, 994.81201171875, 0.08518850058317184, -0.1276087611913681, -0.7133447527885437, 91.0, -17.371363550066, -3.1824246178167144, android.sensor.rotation_vector
1551582141664, -0.08465576171875, 0.358062744140625, 13.734298706054688, 0.9744720458984375, 0.472900390625, 0.7506866455078125, -329.78668212890625, -36.38153076171875, -12.23907470703125, 141.53298950195312, 0.37535446882247925, 3.151165008544922, -4.403470039367676, 0.5256480574607849, 2.858438730239868, 9.369585037231445, 994.81201171875, 0.08518850058317184, -0.1276087611913681, -0.7133447527885437, 91.0, -17.371363550066, -3.1824246178167144, android.sensor.orientation
1551582141669, -0.08465576171875, 0.358062744140625, 13.734298706054688, 0.9744720458984375, 0.472900390625, 0.7506866455078125, -329.78668212890625, -36.38153076171875, -12.23907470703125, 141.53298950195312, 0.37535446882247925, 3.151165008544922, -4.403470039367676, 0.5256480574607849, 2.858438730239868, 9.369585037231445, 994.8104858398438, 0.08518850058317184, -0.1276087611913681, -0.7133447527885437, 91.0, -17.371363550066, -3.1824246178167144, android.sensor.pressure
1551582141721, -0.08465576171875, 0.358062744140625, 13.734298706054688, 0.9744720458984375, 0.472900390625, 0.7506866455078125, -326.45721435546875, -45.2606201171875, -14.45770263671875, 141.53298950195312, 0.37535446882247925, 3.151165008544922, -4.403470039367676, 0.5256480574607849, 2.858438730239868, 9.369585037231445, 994.8104858398438, 0.08518850058317184, -0.1276087611913681, -0.7133447527885437, 91.0, -17.371363550066, -3.1824246178167144, android.sensor.magnetic_field
1551582141739, 0.511016845703125, -0.9092559814453125, 13.05535888671875, 0.9744720458984375, 0.472900390625, 0.7506866455078125, -326.45721435546875, -45.2606201171875, -14.45770263671875, 141.53298950195312, 0.37535446882247925, 3.151165008544922, -4.403470039367676, 0.5256480574607849, 2.858438730239868, 9.369585037231445, 994.8104858398438, 0.08518850058317184, -0.1276087611913681, -0.7133447527885437, 91.0, -17.371363550066, -3.1824246178167144, android.sensor.accelerometer
1551582141739, 0.511016845703125, -0.9092559814453125, 13.05535888671875, 0.9744720458984375, 0.472900390625, 0.7506866455078125, -326.45721435546875, -45.2606201171875, -14.45770263671875, 141.53298950195312, 0.37535446882247925, 3.151165008544922, -4.403470039367676, 1.2334096431732178, 2.7417612075805664, 9.337963104248047, 994.8104858398438, 0.08518850058317184, -0.1276087611913681, -0.7133447527885437, 91.0, -17.371363550066, -3.1824246178167144, android.sensor.gravity
1551582141741, 0.511016845703125, -0.9092559814453125, 13.05535888671875, -0.0743865966796875, -0.6267242431640625, 0.6810760498046875, -326.45721435546875, -45.2606201171875, -14.45770263671875, 141.53298950195312, 0.37535446882247925, 3.151165008544922, -4.403470039367676, 1.2334096431732178, 2.7417612075805664, 9.337963104248047, 994.8104858398438, 0.08518850058317184, -0.1276087611913681, -0.7133447527885437, 91.0, -17.371363550066, -3.1824246178167144, android.sensor.gyroscope
1551582141751, 0.511016845703125, -0.9092559814453125, 13.05535888671875, -0.0743865966796875, -0.6267242431640625, 0.6810760498046875, -326.45721435546875, -45.2606201171875, -14.45770263671875, 141.53298950195312, 0.3980063199996948, 3.412705183029175, -2.9512453079223633, 1.2334096431732178, 2.7417612075805664, 9.337963104248047, 994.8104858398438, 0.08518850058317184, -0.1276087611913681, -0.7133447527885437, 91.0, -17.371363550066, -3.1824246178167144, android.sensor.linear_acceleration
1551582141755, 0.511016845703125, -0.9092559814453125, 13.05535888671875, -0.0743865966796875, -0.6267242431640625, 0.6810760498046875, -326.45721435546875, -45.2606201171875, -14.45770263671875, 141.53298950195312, 0.3980063199996948, 3.412705183029175, -2.9512453079223633, 1.2334096431732178, 2.7417612075805664, 9.337963104248047, 994.8104858398438, 0.05634910985827446, -0.1470479965209961, -0.6928247213363647, 87.0, -16.443091322989783, -7.722263955808837, android.sensor.rotation_vector
1551582141760, 0.511016845703125, -0.9092559814453125, 13.05535888671875, -0.0743865966796875, -0.6267242431640625, 0.6810760498046875, -326.45721435546875, -45.2606201171875, -14.45770263671875, 141.53298950195312, 0.3980063199996948, 3.412705183029175, -2.9512453079223633, 1.2334096431732178, 2.7417612075805664, 9.337963104248047, 994.8104858398438, 0.05634910985827446, -0.1470479965209961, -0.6928247213363647, 87.0, -16.443091322989783, -7.722263955808837, android.sensor.orientation
1551582141771, 0.511016845703125, -0.9092559814453125, 13.05535888671875, -0.0743865966796875, -0.6267242431640625, 0.6810760498046875, -326.45721435546875, -45.2606201171875, -14.45770263671875, 141.53298950195312, 0.3980063199996948, 3.412705183029175, -2.9512453079223633, 1.2334096431732178, 2.7417612075805664, 9.337963104248047, 994.8084716796875, 0.05634910985827446, -0.1470479965209961, -0.6928247213363647, 87.0, -16.443091322989783, -7.722263955808837, android.sensor.pressure
1551582141823, 0.511016845703125, -0.9092559814453125, 13.05535888671875, -0.0743865966796875, -0.6267242431640625, 0.6810760498046875, -326.42669677734375, -51.6510009765625, -8.96759033203125, 141.53298950195312, 0.3980063199996948, 3.412705183029175, -2.9512453079223633, 1.2334096431732178, 2.7417612075805664, 9.337963104248047, 994.8084716796875, 0.05634910985827446, -0.1470479965209961, -0.6928247213363647, 87.0, -16.443091322989783, -7.722263955808837, android.sensor.magnetic_field
1551582141834, 0.9842987060546875, 0.608062744140625, 4.1576385498046875, -0.0743865966796875, -0.6267242431640625, 0.6810760498046875, -326.42669677734375, -51.6510009765625, -8.96759033203125, 141.53298950195312, 0.3980063199996948, 3.412705183029175, -2.9512453079223633, 1.2334096431732178, 2.7417612075805664, 9.337963104248047, 994.8084716796875, 0.05634910985827446, -0.1470479965209961, -0.6928247213363647, 87.0, -16.443091322989783, -7.722263955808837, android.sensor.accelerometer
1551582141834, 0.9842987060546875, 0.608062744140625, 4.1576385498046875, -0.0743865966796875, -0.6267242431640625, 0.6810760498046875, -326.42669677734375, -51.6510009765625, -8.96759033203125, 141.53298950195312, 0.3980063199996948, 3.412705183029175, -2.9512453079223633, 1.2259101867675781, 2.675271987915039, 9.358214378356934, 994.8084716796875, 0.05634910985827446, -0.1470479965209961, -0.6928247213363647, 87.0, -16.443091322989783, -7.722263955808837, android.sensor.gravity
1551582141840, 0.9842987060546875, 0.608062744140625, 4.1576385498046875, -0.1098785400390625, 0.0842742919921875, -0.01324462890625, -326.42669677734375, -51.6510009765625, -8.96759033203125, 141.53298950195312, 0.3980063199996948, 3.412705183029175, -2.9512453079223633, 1.2259101867675781, 2.675271987915039, 9.358214378356934, 994.8084716796875, 0.05634910985827446, -0.1470479965209961, -0.6928247213363647, 87.0, -16.443091322989783, -7.722263955808837, android.sensor.gyroscope
1551582141848, 0.9842987060546875, 0.608062744140625, 4.1576385498046875, -0.1098785400390625, 0.0842742919921875, -0.01324462890625, -326.42669677734375, -51.6510009765625, -8.96759033203125, 141.53298950195312, 0.46142637729644775, 2.0537631511688232, 5.721611976623535, 1.2259101867675781, 2.675271987915039, 9.358214378356934, 994.8084716796875, 0.05634910985827446, -0.1470479965209961, -0.6928247213363647, 87.0, -16.443091322989783, -7.722263955808837, android.sensor.linear_acceleration
1551582141853, 0.9842987060546875, 0.608062744140625, 4.1576385498046875, -0.1098785400390625, 0.0842742919921875, -0.01324462890625, -326.42669677734375, -51.6510009765625, -8.96759033203125, 141.53298950195312, 0.46142637729644775, 2.0537631511688232, 5.721611976623535, 1.2259101867675781, 2.675271987915039, 9.358214378356934, 994.8084716796875, 0.05454263836145401, -0.13910603523254395, -0.69637531042099, 88.0, -15.682869070252563, -7.119610325242402, android.sensor.rotation_vector
1551582141858, 0.9842987060546875, 0.608062744140625, 4.1576385498046875, -0.1098785400390625, 0.0842742919921875, -0.01324462890625, -326.42669677734375, -51.6510009765625, -8.96759033203125, 141.53298950195312, 0.46142637729644775, 2.0537631511688232, 5.721611976623535, 1.2259101867675781, 2.675271987915039, 9.358214378356934, 994.8084716796875, 0.05454263836145401, -0.13910603523254395, -0.69637531042099, 88.0, -15.682869070252563, -7.119610325242402, android.sensor.orientation
1551582141871, 0.9842987060546875, 0.608062744140625, 4.1576385498046875, -0.1098785400390625, 0.0842742919921875, -0.01324462890625, -326.42669677734375, -51.6510009765625, -8.96759033203125, 141.53298950195312, 0.46142637729644775, 2.0537631511688232, 5.721611976623535, 1.2259101867675781, 2.675271987915039, 9.358214378356934, 994.8084716796875, 0.05454263836145401, -0.13910603523254395, -0.69637531042099, 88.0, -15.682869070252563, -7.119610325242402, android.sensor.pressure
1551582141919, 0.9842987060546875, 0.608062744140625, 4.1576385498046875, -0.1098785400390625, 0.0842742919921875, -0.01324462890625, -325.1068115234375, -56.87103271484375, -2.5177001953125, 141.53298950195312, 0.46142637729644775, 2.0537631511688232, 5.721611976623535, 1.2259101867675781, 2.675271987915039, 9.358214378356934, 994.8084716796875, 0.05454263836145401, -0.13910603523254395, -0.69637531042099, 88.0, -15.682869070252563, -7.119610325242402, android.sensor.magnetic_field
1551582141932, 0.9842987060546875, 0.608062744140625, 4.1576385498046875, -0.1098785400390625, 0.0842742919921875, -0.01324462890625, -325.1068115234375, -56.87103271484375, -2.5177001953125, 141.53298950195312, 0.46142637729644775, 2.0537631511688232, 5.721611976623535, 1.073258399963379, 2.7843096256256104, 9.3451509475708, 994.8084716796875, 0.05454263836145401, -0.13910603523254395, -0.69637531042099, 88.0, -15.682869070252563, -7.119610325242402, android.sensor.gravity
1551582141932, 1.071319580078125, 0.1334686279296875, 9.624664306640625, -0.1098785400390625, 0.0842742919921875, -0.01324462890625, -325.1068115234375, -56.87103271484375, -2.5177001953125, 141.53298950195312, 0.46142637729644775, 2.0537631511688232, 5.721611976623535, 1.073258399963379, 2.7843096256256104, 9.3451509475708, 994.8084716796875, 0.05454263836145401, -0.13910603523254395, -0.69637531042099, 88.0, -15.682869070252563, -7.119610325242402, android.sensor.accelerometer
1551582141938, 1.071319580078125, 0.1334686279296875, 9.624664306640625, 0.2629852294921875, 0.2339935302734375, 0.08428955078125, -325.1068115234375, -56.87103271484375, -2.5177001953125, 141.53298950195312, 0.46142637729644775, 2.0537631511688232, 5.721611976623535, 1.073258399963379, 2.7843096256256104, 9.3451509475708, 994.8084716796875, 0.05454263836145401, -0.13910603523254395, -0.69637531042099, 88.0, -15.682869070252563, -7.119610325242402, android.sensor.gyroscope
1551582141945, 1.071319580078125, 0.1334686279296875, 9.624664306640625, 0.2629852294921875, 0.2339935302734375, 0.08428955078125, -325.1068115234375, -56.87103271484375, -2.5177001953125, 141.53298950195312, -0.7369968295097351, 2.8242390155792236, -2.149594306945801, 1.073258399963379, 2.7843096256256104, 9.3451509475708, 994.8084716796875, 0.05454263836145401, -0.13910603523254395, -0.69637531042099, 88.0, -15.682869070252563, -7.119610325242402, android.sensor.linear_acceleration
1551582141951, 1.071319580078125, 0.1334686279296875, 9.624664306640625, 0.2629852294921875, 0.2339935302734375, 0.08428955078125, -325.1068115234375, -56.87103271484375, -2.5177001953125, 141.53298950195312, -0.7369968295097351, 2.8242390155792236, -2.149594306945801, 1.073258399963379, 2.7843096256256104, 9.3451509475708, 994.8084716796875, 0.07922694832086563, -0.14101596176624298, -0.6899531483650208, 87.0, -17.84157597064448, -5.404822178445355, android.sensor.rotation_vector
1551582141956, 1.071319580078125, 0.1334686279296875, 9.624664306640625, 0.2629852294921875, 0.2339935302734375, 0.08428955078125, -325.1068115234375, -56.87103271484375, -2.5177001953125, 141.53298950195312, -0.7369968295097351, 2.8242390155792236, -2.149594306945801, 1.073258399963379, 2.7843096256256104, 9.3451509475708, 994.8084716796875, 0.07922694832086563, -0.14101596176624298, -0.6899531483650208, 87.0, -17.84157597064448, -5.404822178445355, android.sensor.orientation
1551582141959, 1.071319580078125, 0.1334686279296875, 9.624664306640625, 0.2629852294921875, 0.2339935302734375, 0.08428955078125, -325.1068115234375, -56.87103271484375, -2.5177001953125, 201.70498657226562, -0.7369968295097351, 2.8242390155792236, -2.149594306945801, 1.073258399963379, 2.7843096256256104, 9.3451509475708, 994.8084716796875, 0.07922694832086563, -0.14101596176624298, -0.6899531483650208, 87.0, -17.84157597064448, -5.404822178445355, android.sensor.light
1551582141970, 1.071319580078125, 0.1334686279296875, 9.624664306640625, 0.2629852294921875, 0.2339935302734375, 0.08428955078125, -325.1068115234375, -56.87103271484375, -2.5177001953125, 201.70498657226562, -0.7369968295097351, 2.8242390155792236, -2.149594306945801, 1.073258399963379, 2.7843096256256104, 9.3451509475708, 994.8162841796875, 0.07922694832086563, -0.14101596176624298, -0.6899531483650208, 87.0, -17.84157597064448, -5.404822178445355, android.sensor.pressure
1551582142013, 1.071319580078125, 0.1334686279296875, 9.624664306640625, 0.2629852294921875, 0.2339935302734375, 0.08428955078125, -321.2371826171875, -59.26971435546875, 7.11212158203125, 201.70498657226562, -0.7369968295097351, 2.8242390155792236, -2.149594306945801, 1.073258399963379, 2.7843096256256104, 9.3451509475708, 994.8162841796875, 0.07922694832086563, -0.14101596176624298, -0.6899531483650208, 87.0, -17.84157597064448, -5.404822178445355, android.sensor.magnetic_field
1551582142028, 0.8986968994140625, 0.46014404296875, 15.07989501953125, 0.2629852294921875, 0.2339935302734375, 0.08428955078125, -321.2371826171875, -59.26971435546875, 7.11212158203125, 201.70498657226562, -0.7369968295097351, 2.8242390155792236, -2.149594306945801, 1.073258399963379, 2.7843096256256104, 9.3451509475708, 994.8162841796875, 0.07922694832086563, -0.14101596176624298, -0.6899531483650208, 87.0, -17.84157597064448, -5.404822178445355, android.sensor.accelerometer
1551582142028, 0.8986968994140625, 0.46014404296875, 15.07989501953125, 0.2629852294921875, 0.2339935302734375, 0.08428955078125, -321.2371826171875, -59.26971435546875, 7.11212158203125, 201.70498657226562, -0.7369968295097351, 2.8242390155792236, -2.149594306945801, 0.6007868051528931, 2.8962628841400146, 9.353439331054688, 994.8162841796875, 0.07922694832086563, -0.14101596176624298, -0.6899531483650208, 87.0, -17.84157597064448, -5.404822178445355, android.sensor.gravity
1551582142033, 0.8986968994140625, 0.46014404296875, 15.07989501953125, 0.0042877197265625, 0.2044219970703125, -0.3269500732421875, -321.2371826171875, -59.26971435546875, 7.11212158203125, 201.70498657226562, -0.7369968295097351, 2.8242390155792236, -2.149594306945801, 0.6007868051528931, 2.8962628841400146, 9.353439331054688, 994.8162841796875, 0.07922694832086563, -0.14101596176624298, -0.6899531483650208, 87.0, -17.84157597064448, -5.404822178445355, android.sensor.gyroscope
1551582142042, 0.8986968994140625, 0.46014404296875, 15.07989501953125, 0.0042877197265625, 0.2044219970703125, -0.3269500732421875, -321.2371826171875, -59.26971435546875, 7.11212158203125, 201.70498657226562, -0.13470005989074707, 2.635687828063965, -6.624564170837402, 0.6007868051528931, 2.8962628841400146, 9.353439331054688, 994.8162841796875, 0.07922694832086563, -0.14101596176624298, -0.6899531483650208, 87.0, -17.84157597064448, -5.404822178445355, android.sensor.linear_acceleration
1551582142047, 0.8986968994140625, 0.46014404296875, 15.07989501953125, 0.0042877197265625, 0.2044219970703125, -0.3269500732421875, -321.2371826171875, -59.26971435546875, 7.11212158203125, 201.70498657226562, -0.13470005989074707, 2.635687828063965, -6.624564170837402, 0.6007868051528931, 2.8962628841400146, 9.353439331054688, 994.8162841796875, 0.07765980064868927, -0.13499881327152252, -0.702152669429779, 89.0, -17.30710513035452, -4.71827717628506, android.sensor.rotation_vector
1551582142052, 0.8986968994140625, 0.46014404296875, 15.07989501953125, 0.0042877197265625, 0.2044219970703125, -0.3269500732421875, -321.2371826171875, -59.26971435546875, 7.11212158203125, 201.70498657226562, -0.13470005989074707, 2.635687828063965, -6.624564170837402, 0.6007868051528931, 2.8962628841400146, 9.353439331054688, 994.8162841796875, 0.07765980064868927, -0.13499881327152252, -0.702152669429779, 89.0, -17.30710513035452, -4.71827717628506, android.sensor.orientation
1551582142068, 0.8986968994140625, 0.46014404296875, 15.07989501953125, 0.0042877197265625, 0.2044219970703125, -0.3269500732421875, -321.2371826171875, -59.26971435546875, 7.11212158203125, 201.70498657226562, -0.13470005989074707, 2.635687828063965, -6.624564170837402, 0.6007868051528931, 2.8962628841400146, 9.353439331054688, 994.8162841796875, 0.07765980064868927, -0.13499881327152252, -0.702152669429779, 89.0, -17.30710513035452, -4.71827717628506, android.sensor.pressure
1551582142112, 0.8986968994140625, 0.46014404296875, 15.07989501953125, 0.0042877197265625, 0.2044219970703125, -0.3269500732421875, -320.0958251953125, -57.110595703125, 15.03143310546875, 201.70498657226562, -0.13470005989074707, 2.635687828063965, -6.624564170837402, 0.6007868051528931, 2.8962628841400146, 9.353439331054688, 994.8162841796875, 0.07765980064868927, -0.13499881327152252, -0.702152669429779, 89.0, -17.30710513035452, -4.71827717628506, android.sensor.magnetic_field
1551582142127, 0.8986968994140625, 0.46014404296875, 15.07989501953125, 0.0042877197265625, 0.2044219970703125, -0.3269500732421875, -320.0958251953125, -57.110595703125, 15.03143310546875, 201.70498657226562, -0.13470005989074707, 2.635687828063965, -6.624564170837402, 0.8347874879837036, 2.8539059162139893, 9.34850025177002, 994.8162841796875, 0.07765980064868927, -0.13499881327152252, -0.702152669429779, 89.0, -17.30710513035452, -4.71827717628506, android.sensor.gravity
1551582142127, 0.9548187255859375, 2.4003143310546875, 9.09405517578125, 0.0042877197265625, 0.2044219970703125, -0.3269500732421875, -320.0958251953125, -57.110595703125, 15.03143310546875, 201.70498657226562, -0.13470005989074707, 2.635687828063965, -6.624564170837402, 0.8347874879837036, 2.8539059162139893, 9.34850025177002, 994.8162841796875, 0.07765980064868927, -0.13499881327152252, -0.702152669429779, 89.0, -17.30710513035452, -4.71827717628506, android.sensor.accelerometer
1551582142132, 0.9548187255859375, 2.4003143310546875, 9.09405517578125, -0.1489105224609375, -0.2585296630859375, -0.42449951171875, -320.0958251953125, -57.110595703125, 15.03143310546875, 201.70498657226562, -0.13470005989074707, 2.635687828063965, -6.624564170837402, 0.8347874879837036, 2.8539059162139893, 9.34850025177002, 994.8162841796875, 0.07765980064868927, -0.13499881327152252, -0.702152669429779, 89.0, -17.30710513035452, -4.71827717628506, android.sensor.gyroscope
1551582142143, 0.9548187255859375, 2.4003143310546875, 9.09405517578125, -0.1489105224609375, -0.2585296630859375, -0.42449951171875, -320.0958251953125, -57.110595703125, 15.03143310546875, 201.70498657226562, 0.17107421159744263, -0.29967379570007324, 2.2448911666870117, 0.8347874879837036, 2.8539059162139893, 9.34850025177002, 994.8162841796875, 0.07765980064868927, -0.13499881327152252, -0.702152669429779, 89.0, -17.30710513035452, -4.71827717628506, android.sensor.linear_acceleration
1551582142148, 0.9548187255859375, 2.4003143310546875, 9.09405517578125, -0.1489105224609375, -0.2585296630859375, -0.42449951171875, -320.0958251953125, -57.110595703125, 15.03143310546875, 201.70498657226562, 0.17107421159744263, -0.29967379570007324, 2.2448911666870117, 0.8347874879837036, 2.8539059162139893, 9.34850025177002, 994.8162841796875, 0.06765785068273544, -0.1307385116815567, -0.7209815979003906, 92.0, -16.269008584066377, -4.750209164428516, android.sensor.rotation_vector
1551582142152, 0.9548187255859375, 2.4003143310546875, 9.09405517578125, -0.1489105224609375, -0.2585296630859375, -0.42449951171875, -320.0958251953125, -57.110595703125, 15.03143310546875, 201.70498657226562, 0.17107421159744263, -0.29967379570007324, 2.2448911666870117, 0.8347874879837036, 2.8539059162139893, 9.34850025177002, 994.8162841796875, 0.06765785068273544, -0.1307385116815567, -0.7209815979003906, 92.0, -16.269008584066377, -4.750209164428516, android.sensor.orientation
1551582142170, 0.9548187255859375, 2.4003143310546875, 9.09405517578125, -0.1489105224609375, -0.2585296630859375, -0.42449951171875, -320.0958251953125, -57.110595703125, 15.03143310546875, 201.70498657226562, 0.17107421159744263, -0.29967379570007324, 2.2448911666870117, 0.8347874879837036, 2.8539059162139893, 9.34850025177002, 994.8151245117188, 0.06765785068273544, -0.1307385116815567, -0.7209815979003906, 92.0, -16.269008584066377, -4.750209164428516, android.sensor.pressure
1551582142213, 0.9548187255859375, 2.4003143310546875, 9.09405517578125, -0.1489105224609375, -0.2585296630859375, -0.42449951171875, -319.31610107421875, -52.7008056640625, 20.4620361328125, 201.70498657226562, 0.17107421159744263, -0.29967379570007324, 2.2448911666870117, 0.8347874879837036, 2.8539059162139893, 9.34850025177002, 994.8151245117188, 0.06765785068273544, -0.1307385116815567, -0.7209815979003906, 92.0, -16.269008584066377, -4.750209164428516, android.sensor.magnetic_field
1551582142228, 0.9548187255859375, 2.4003143310546875, 9.09405517578125, -0.1489105224609375, -0.2585296630859375, -0.42449951171875, -319.31610107421875, -52.7008056640625, 20.4620361328125, 201.70498657226562, 0.17107421159744263, -0.29967379570007324, 2.2448911666870117, 0.3457343876361847, 2.7011804580688477, 9.424447059631348, 994.8151245117188, 0.06765785068273544, -0.1307385116815567, -0.7209815979003906, 92.0, -16.269008584066377, -4.750209164428516, android.sensor.gravity
1551582142228, -1.3146820068359375, 2.5062103271484375, 3.9648284912109375, -0.1489105224609375, -0.2585296630859375, -0.42449951171875, -319.31610107421875, -52.7008056640625, 20.4620361328125, 201.70498657226562, 0.17107421159744263, -0.29967379570007324, 2.2448911666870117, 0.3457343876361847, 2.7011804580688477, 9.424447059631348, 994.8151245117188, 0.06765785068273544, -0.1307385116815567, -0.7209815979003906, 92.0, -16.269008584066377, -4.750209164428516, android.sensor.accelerometer
1551582142231, -1.3146820068359375, 2.5062103271484375, 3.9648284912109375, -0.063995361328125, 0.434112548828125, -0.403656005859375, -319.31610107421875, -52.7008056640625, 20.4620361328125, 201.70498657226562, 0.17107421159744263, -0.29967379570007324, 2.2448911666870117, 0.3457343876361847, 2.7011804580688477, 9.424447059631348, 994.8151245117188, 0.06765785068273544, -0.1307385116815567, -0.7209815979003906, 92.0, -16.269008584066377, -4.750209164428516, android.sensor.gyroscope
1551582142242, -1.3146820068359375, 2.5062103271484375, 3.9648284912109375, -0.063995361328125, 0.434112548828125, -0.403656005859375, -319.31610107421875, -52.7008056640625, 20.4620361328125, 201.70498657226562, 1.787907361984253, 0.5490541458129883, 5.544571876525879, 0.3457343876361847, 2.7011804580688477, 9.424447059631348, 994.8151245117188, 0.06765785068273544, -0.1307385116815567, -0.7209815979003906, 92.0, -16.269008584066377, -4.750209164428516, android.sensor.linear_acceleration
1551582142247, -1.3146820068359375, 2.5062103271484375, 3.9648284912109375, -0.063995361328125, 0.434112548828125, -0.403656005859375, -319.31610107421875, -52.7008056640625, 20.4620361328125, 201.70498657226562, 1.787907361984253, 0.5490541458129883, 5.544571876525879, 0.3457343876361847, 2.7011804580688477, 9.424447059631348, 994.8151245117188, 0.0884614884853363, -0.11747951805591583, -0.7284005880355835, 94.0, -16.830306699868856, -1.6978582422787016, android.sensor.rotation_vector
1551582142250, -1.3146820068359375, 2.5062103271484375, 3.9648284912109375, -0.063995361328125, 0.434112548828125, -0.403656005859375, -319.31610107421875, -52.7008056640625, 20.4620361328125, 201.70498657226562, 1.787907361984253, 0.5490541458129883, 5.544571876525879, 0.3457343876361847, 2.7011804580688477, 9.424447059631348, 994.8151245117188, 0.0884614884853363, -0.11747951805591583, -0.7284005880355835, 94.0, -16.830306699868856, -1.6978582422787016, android.sensor.orientation
1551582142274, -1.3146820068359375, 2.5062103271484375, 3.9648284912109375, -0.063995361328125, 0.434112548828125, -0.403656005859375, -319.31610107421875, -52.7008056640625, 20.4620361328125, 201.70498657226562, 1.787907361984253, 0.5490541458129883, 5.544571876525879, 0.3457343876361847, 2.7011804580688477, 9.424447059631348, 994.8181762695312, 0.0884614884853363, -0.11747951805591583, -0.7284005880355835, 94.0, -16.830306699868856, -1.6978582422787016, android.sensor.pressure
1551582142314, -1.3146820068359375, 2.5062103271484375, 3.9648284912109375, -0.063995361328125, 0.434112548828125, -0.403656005859375, -317.9962158203125, -49.07073974609375, 27.301025390625, 201.70498657226562, 1.787907361984253, 0.5490541458129883, 5.544571876525879, 0.3457343876361847, 2.7011804580688477, 9.424447059631348, 994.8181762695312, 0.0884614884853363, -0.11747951805591583, -0.7284005880355835, 94.0, -16.830306699868856, -1.6978582422787016, android.sensor.magnetic_field
1551582142323, -1.0114288330078125, 2.470123291015625, 8.248291015625, -0.063995361328125, 0.434112548828125, -0.403656005859375, -317.9962158203125, -49.07073974609375, 27.301025390625, 201.70498657226562, 1.787907361984253, 0.5490541458129883, 5.544571876525879, 0.3457343876361847, 2.7011804580688477, 9.424447059631348, 994.8181762695312, 0.0884614884853363, -0.11747951805591583, -0.7284005880355835, 94.0, -16.830306699868856, -1.6978582422787016, android.sensor.accelerometer
1551582142324, -1.0114288330078125, 2.470123291015625, 8.248291015625, -0.063995361328125, 0.434112548828125, -0.403656005859375, -317.9962158203125, -49.07073974609375, 27.301025390625, 201.70498657226562, 1.787907361984253, 0.5490541458129883, 5.544571876525879, 0.1556313931941986, 3.10856294631958, 9.303156852722168, 994.8181762695312, 0.0884614884853363, -0.11747951805591583, -0.7284005880355835, 94.0, -16.830306699868856, -1.6978582422787016, android.sensor.gravity
1551582142328, -1.0114288330078125, 2.470123291015625, 8.248291015625, 0.4560394287109375, 0.3538055419921875, 0.53533935546875, -317.9962158203125, -49.07073974609375, 27.301025390625, 201.70498657226562, 1.787907361984253, 0.5490541458129883, 5.544571876525879, 0.1556313931941986, 3.10856294631958, 9.303156852722168, 994.8181762695312, 0.0884614884853363, -0.11747951805591583, -0.7284005880355835, 94.0, -16.830306699868856, -1.6978582422787016, android.sensor.gyroscope
1551582142342, -1.0114288330078125, 2.470123291015625, 8.248291015625, 0.4560394287109375, 0.3538055419921875, 0.53533935546875, -317.9962158203125, -49.07073974609375, 27.301025390625, 201.70498657226562, 0.8031822443008423, 0.6827478408813477, -0.5062093734741211, 0.1556313931941986, 3.10856294631958, 9.303156852722168, 994.8181762695312, 0.0884614884853363, -0.11747951805591583, -0.7284005880355835, 94.0, -16.830306699868856, -1.6978582422787016, android.sensor.linear_acceleration
1551582142345, -1.0114288330078125, 2.470123291015625, 8.248291015625, 0.4560394287109375, 0.3538055419921875, 0.53533935546875, -317.9962158203125, -49.07073974609375, 27.301025390625, 201.70498657226562, 0.8031822443008423, 0.6827478408813477, -0.5062093734741211, 0.1556313931941986, 3.10856294631958, 9.303156852722168, 994.8181762695312, 0.11243168264627457, -0.12448561936616898, -0.7053216099739075, 91.0, -19.29794988660962, -0.7818841976899171, android.sensor.rotation_vector
1551582142346, -1.0114288330078125, 2.470123291015625, 8.248291015625, 0.4560394287109375, 0.3538055419921875, 0.53533935546875, -317.9962158203125, -49.07073974609375, 27.301025390625, 201.70498657226562, 0.8031822443008423, 0.6827478408813477, -0.5062093734741211, 0.1556313931941986, 3.10856294631958, 9.303156852722168, 994.8181762695312, 0.11243168264627457, -0.12448561936616898, -0.7053216099739075, 91.0, -19.29794988660962, -0.7818841976899171, android.sensor.orientation
1551582142374, -1.0114288330078125, 2.470123291015625, 8.248291015625, 0.4560394287109375, 0.3538055419921875, 0.53533935546875, -317.9962158203125, -49.07073974609375, 27.301025390625, 201.70498657226562, 0.8031822443008423, 0.6827478408813477, -0.5062093734741211, 0.1556313931941986, 3.10856294631958, 9.303156852722168, 994.8181762695312, 0.11243168264627457, -0.12448561936616898, -0.7053216099739075, 91.0, -19.29794988660962, -0.7818841976899171, android.sensor.pressure
1551582142411, -1.0114288330078125, 2.470123291015625, 8.248291015625, 0.4560394287109375, 0.3538055419921875, 0.53533935546875, -317.9962158203125, -45.9808349609375, 34.08203125, 201.70498657226562, 0.8031822443008423, 0.6827478408813477, -0.5062093734741211, 0.1556313931941986, 3.10856294631958, 9.303156852722168, 994.8181762695312, 0.11243168264627457, -0.12448561936616898, -0.7053216099739075, 91.0, -19.29794988660962, -0.7818841976899171, android.sensor.magnetic_field
