timestamp, acc_x, acc_y, acc_z, gyro_x, gyro_y, gyro_z, mag_x, mag_y, mag_z, light, la_x, la_y, la_z, gravity_x, gravity_y, gravity_z, pressure, rot_x, rot_y, rot_z, azimuth, pitch, roll, sensor_change
1536627868732, 0.2454056739807129, 0.9181763529777527, 9.90241813659668, 0.0, 0.0, 0.0, 0.0, 0.0, 0.0, 0.0, 0.0, 0.0, 0.0, 0.0, 0.0, 0.0, 0.0, 0.0, 0.0, 0.0, 0.0, 0.0, 0.0, K330 3-axis Accelerometer
1536627868733, 0.2454056739807129, 0.9181763529777527, 9.90241813659668, 0.0, 0.0, 0.0, 0.0, 0.0, 0.0, 167.0, 0.0, 0.0, 0.0, 0.0, 0.0, 0.0, 0.0, 0.0, 0.0, 0.0, 0.0, 0.0, 0.0, CM3323 RGB Sensor
1536627868780, 0.2454056739807129, 0.9181763529777527, 9.90241813659668, 0.0, 0.0, 0.0, 48.433998107910156, 14.076000213623047, 9.949999809265137, 167.0, 0.0, 0.0, 0.0, 0.0, 0.0, 0.0, 0.0, 0.0, 0.0, 0.0, 0.0, 0.0, 0.0, YAS532 Magnetic Sensor
1536627868784, 0.2454056739807129, 0.9181763529777527, 9.90241813659668, -0.013133603148162365, 0.07238753139972687, 0.3882048726081848, 48.433998107910156, 14.076000213623047, 9.949999809265137, 167.0, 0.0, 0.0, 0.0, 0.0, 0.0, 0.0, 0.0, 0.0, 0.0, 0.0, 0.0, 0.0, 0.0, K330 Gyroscope sensor
1536627868787, 0.2454056739807129, 0.9181763529777527, 9.90241813659668, -0.013744467869400978, 0.07238753139972687, 0.38759398460388184, 48.433998107910156, 14.076000213623047, 9.949999809265137, 167.0, 0.0, 0.0, 0.0, 0.0, 0.0, 0.0, 0.0, 0.0, 0.0, 0.0, 0.0, 0.0, 0.0, K330 Gyroscope sensor
1536627868787, 0.2454056739807129, 0.9181763529777527, 9.90241813659668, -0.013744467869400978, 0.07238753139972687, 0.38759398460388184, 48.433998107910156, 14.076000213623047, 9.508999824523926, 167.0, 0.0, 0.0, 0.0, 0.0, 0.0, 0.0, 0.0, 0.0, 0.0, 0.0, 0.0, 0.0, 0.0, YAS532 Magnetic Sensor
1536627868789, 0.2454056739807129, 0.9181763529777527, 9.90241813659668, -0.009468411095440388, 0.06688974797725677, 0.39584067463874817, 48.433998107910156, 14.076000213623047, 9.508999824523926, 167.0, 0.0, 0.0, 0.0, 0.0, 0.0, 0.0, 0.0, 0.0, 0.0, 0.0, 0.0, 0.0, 0.0, K330 Gyroscope sensor
1536627868810, 0.2454056739807129, 0.9181763529777527, 9.90241813659668, -0.007635815534740686, 0.09529497474431992, 0.403781920671463, 48.433998107910156, 14.076000213623047, 9.508999824523926, 167.0, 0.0, 0.0, 0.0, 0.0, 0.0, 0.0, 0.0, 0.0, 0.0, 0.0, 0.0, 0.0, 0.0, K330 Gyroscope sensor
1536627868813, 0.2454056739807129, 0.9181763529777527, 9.90241813659668, -0.007635815534740686, 0.09529497474431992, 0.403781920671463, 48.433998107910156, 14.407999992370605, 8.072999954223633, 167.0, 0.0, 0.0, 0.0, 0.0, 0.0, 0.0, 0.0, 0.0, 0.0, 0.0, 0.0, 0.0, 0.0, YAS532 Magnetic Sensor
1536627868815, 0.2454056739807129, 0.9181763529777527, 9.90241813659668, -0.022907447069883347, 0.11545353382825851, 0.408974289894104, 48.433998107910156, 14.407999992370605, 8.072999954223633, 167.0, 0.0, 0.0, 0.0, 0.0, 0.0, 0.0, 0.0, 0.0, 0.0, 0.0, 0.0, 0.0, 0.0, K330 Gyroscope sensor
1536627868816, 0.2454056739807129, 0.9181763529777527, 9.90241813659668, -0.03726277872920036, 0.096211276948452, 0.40256020426750183, 48.433998107910156, 14.407999992370605, 8.072999954223633, 167.0, 0.0, 0.0, 0.0, 0.0, 0.0, 0.0, 0.0, 0.0, 0.0, 0.0, 0.0, 0.0, 0.0, K330 Gyroscope sensor
1536627868828, 0.2454056739807129, 0.9181763529777527, 9.90241813659668, -0.03726277872920036, 0.096211276948452, 0.40256020426750183, 48.433998107910156, 14.883000373840332, 8.529000282287598, 167.0, 0.0, 0.0, 0.0, 0.0, 0.0, 0.0, 0.0, 0.0, 0.0, 0.0, 0.0, 0.0, 0.0, YAS532 Magnetic Sensor
1536627868829, 0.2454056739807129, 0.9181763529777527, 9.90241813659668, -0.0354301854968071, 0.06017022579908371, 0.4031710624694824, 48.433998107910156, 14.883000373840332, 8.529000282287598, 167.0, 0.0, 0.0, 0.0, 0.0, 0.0, 0.0, 0.0, 0.0, 0.0, 0.0, 0.0, 0.0, 0.0, K330 Gyroscope sensor
1536627868838, 0.2454056739807129, 0.9181763529777527, 9.90241813659668, -0.03481931984424591, 0.05406157299876213, 0.40103304386138916, 48.433998107910156, 14.883000373840332, 8.529000282287598, 167.0, 0.0, 0.0, 0.0, 0.0, 0.0, 0.0, 0.0, 0.0, 0.0, 0.0, 0.0, 0.0, 0.0, K330 Gyroscope sensor
1536627868846, 0.2454056739807129, 0.9181763529777527, 9.90241813659668, -0.03481931984424591, 0.05406157299876213, 0.40103304386138916, 48.433998107910156, 15.315999984741211, 8.529000282287598, 167.0, 0.0, 0.0, 0.0, 0.0, 0.0, 0.0, 0.0, 0.0, 0.0, 0.0, 0.0, 0.0, 0.0, YAS532 Magnetic Sensor
1536627868847, 0.2454056739807129, 0.9181763529777527, 9.90241813659668, -0.03329215571284294, 0.03756821155548096, 0.4001167416572571, 48.433998107910156, 15.315999984741211, 8.529000282287598, 167.0, 0.0, 0.0, 0.0, 0.0, 0.0, 0.0, 0.0, 0.0, 0.0, 0.0, 0.0, 0.0, 0.0, K330 Gyroscope sensor
1536627868856, 0.2454056739807129, 0.9181763529777527, 9.90241813659668, -0.02474004216492176, 0.019547687843441963, 0.3998112976551056, 48.433998107910156, 15.315999984741211, 8.529000282287598, 167.0, 0.0, 0.0, 0.0, 0.0, 0.0, 0.0, 0.0, 0.0, 0.0, 0.0, 0.0, 0.0, 0.0, K330 Gyroscope sensor
1536627868867, 0.2454056739807129, 0.9181763529777527, 9.90241813659668, -0.02474004216492176, 0.019547687843441963, 0.3998112976551056, 48.433998107910156, 14.795999526977539, 8.529000282287598, 167.0, 0.0, 0.0, 0.0, 0.0, 0.0, 0.0, 0.0, 0.0, 0.0, 0.0, 0.0, 0.0, 0.0, YAS532 Magnetic Sensor
1536627868871, 0.2454056739807129, 0.9181763529777527, 9.90241813659668, -0.012828170321881771, -0.001527163083665073, 0.39797869324684143, 48.433998107910156, 14.795999526977539, 8.529000282287598, 167.0, 0.0, 0.0, 0.0, 0.0, 0.0, 0.0, 0.0, 0.0, 0.0, 0.0, 0.0, 0.0, 0.0, K330 Gyroscope sensor
1536627868875, 0.2454056739807129, 0.9181763529777527, 9.90241813659668, -0.0012217304902151227, -0.032681290060281754, 0.3985895812511444, 48.433998107910156, 14.795999526977539, 8.529000282287598, 167.0, 0.0, 0.0, 0.0, 0.0, 0.0, 0.0, 0.0, 0.0, 0.0, 0.0, 0.0, 0.0, 0.0, K330 Gyroscope sensor
1536627868889, 0.2519897222518921, 0.8092401623725891, 10.210073471069336, -0.0012217304902151227, -0.032681290060281754, 0.3985895812511444, 48.433998107910156, 14.795999526977539, 8.529000282287598, 167.0, 0.0, 0.0, 0.0, 0.0, 0.0, 0.0, 0.0, 0.0, 0.0, 0.0, 0.0, 0.0, 0.0, K330 3-axis Accelerometer
1536627868890, 0.2519897222518921, 0.8092401623725891, 10.210073471069336, -0.0012217304902151227, -0.032681290060281754, 0.3985895812511444, 48.433998107910156, 14.795999526977539, 8.529000282287598, 167.0, 0.0, 0.0, 0.0, 0.24153973162174225, 0.8354963660240173, 9.7680082321167, 0.0, 0.0, 0.0, 0.0, 0.0, 0.0, 0.0, Gravity Sensor
1536627868894, 0.2519897222518921, 0.8092401623725891, 10.210073471069336, -0.0012217304902151227, -0.032681290060281754, 0.3985895812511444, 48.433998107910156, 14.795999526977539, 8.529000282287598, 167.0, 0.010449990630149841, -0.026256203651428223, 0.4420652389526367, 0.24153973162174225, 0.8354963660240173, 9.7680082321167, 0.0, 0.0, 0.0, 0.0, 0.0, 0.0, 0.0, Linear Acceleration Sensor
1536627868897, 0.2519897222518921, 0.8092401623725891, 10.210073471069336, -0.0012217304902151227, -0.032681290060281754, 0.3985895812511444, 48.433998107910156, 14.795999526977539, 8.529000282287598, 167.0, 0.010449990630149841, -0.026256203651428223, 0.4420652389526367, 0.24153973162174225, 0.8354963660240173, 9.7680082321167, 0.0, 0.04149259626865387, 0.01576503925025463, 0.6002278327941895, 286.0, -4.887348263904971, -1.4165010858596028, Rotation Vector Sensor
1536627868899, 0.2519897222518921, 0.8092401623725891, 10.210073471069336, -0.0012217304902151227, -0.032681290060281754, 0.3985895812511444, 48.433998107910156, 14.795999526977539, 8.529000282287598, 167.0, 0.010449990630149841, -0.026256203651428223, 0.4420652389526367, 0.24153973162174225, 0.8354963660240173, 9.7680082321167, 0.0, 0.04149259626865387, 0.01576503925025463, 0.6002278327941895, 286.0, -4.887348263904971, -1.4165010858596028, Orientation Sensor
1536627868901, 0.2519897222518921, 0.8092401623725891, 10.210073471069336, 0.030237829312682152, -0.05253441259264946, 0.39187005162239075, 48.433998107910156, 14.795999526977539, 8.529000282287598, 167.0, 0.010449990630149841, -0.026256203651428223, 0.4420652389526367, 0.24153973162174225, 0.8354963660240173, 9.7680082321167, 0.0, 0.04149259626865387, 0.01576503925025463, 0.6002278327941895, 286.0, -4.887348263904971, -1.4165010858596028, K330 Gyroscope sensor
1536627868910, 0.2519897222518921, 0.8092401623725891, 10.210073471069336, 0.030237829312682152, -0.05253441259264946, 0.39187005162239075, 48.433998107910156, 14.795999526977539, 7.6519999504089355, 167.0, 0.010449990630149841, -0.026256203651428223, 0.4420652389526367, 0.24153973162174225, 0.8354963660240173, 9.7680082321167, 0.0, 0.04149259626865387, 0.01576503925025463, 0.6002278327941895, 286.0, -4.887348263904971, -1.4165010858596028, YAS532 Magnetic Sensor
1536627868915, 0.2519897222518921, 0.8092401623725891, 10.210073471069336, 0.030237829312682152, -0.05253441259264946, 0.39187005162239075, 48.433998107910156, 14.795999526977539, 7.6519999504089355, 173.0, 0.010449990630149841, -0.026256203651428223, 0.4420652389526367, 0.24153973162174225, 0.8354963660240173, 9.7680082321167, 0.0, 0.04149259626865387, 0.01576503925025463, 0.6002278327941895, 286.0, -4.887348263904971, -1.4165010858596028, CM3323 RGB Sensor
1536627868917, 0.2519897222518921, 0.8092401623725891, 10.210073471069336, 0.05314527451992035, -0.09285151958465576, 0.3332269787788391, 48.433998107910156, 14.795999526977539, 7.6519999504089355, 173.0, 0.010449990630149841, -0.026256203651428223, 0.4420652389526367, 0.24153973162174225, 0.8354963660240173, 9.7680082321167, 0.0, 0.04149259626865387, 0.01576503925025463, 0.6002278327941895, 286.0, -4.887348263904971, -1.4165010858596028, K330 Gyroscope sensor
1536627868928, 0.2519897222518921, 0.8092401623725891, 10.210073471069336, 0.05314527451992035, -0.09285151958465576, 0.3332269787788391, 48.433998107910156, 15.116000175476074, 9.1899995803833, 173.0, 0.010449990630149841, -0.026256203651428223, 0.4420652389526367, 0.24153973162174225, 0.8354963660240173, 9.7680082321167, 0.0, 0.04149259626865387, 0.01576503925025463, 0.6002278327941895, 286.0, -4.887348263904971, -1.4165010858596028, YAS532 Magnetic Sensor
1536627868929, 0.2519897222518921, 0.8092401623725891, 10.210073471069336, 0.06414084881544113, -0.11301007121801376, 0.23426681756973267, 48.433998107910156, 15.116000175476074, 9.1899995803833, 173.0, 0.010449990630149841, -0.026256203651428223, 0.4420652389526367, 0.24153973162174225, 0.8354963660240173, 9.7680082321167, 0.0, 0.04149259626865387, 0.01576503925025463, 0.6002278327941895, 286.0, -4.887348263904971, -1.4165010858596028, K330 Gyroscope sensor
1536627868932, 0.2519897222518921, 0.8092401623725891, 10.210073471069336, 0.05314527451992035, -0.09926560521125793, 0.08918632566928864, 48.433998107910156, 15.116000175476074, 9.1899995803833, 173.0, 0.010449990630149841, -0.026256203651428223, 0.4420652389526367, 0.24153973162174225, 0.8354963660240173, 9.7680082321167, 0.0, 0.04149259626865387, 0.01576503925025463, 0.6002278327941895, 286.0, -4.887348263904971, -1.4165010858596028, K330 Gyroscope sensor
1536627868940, 0.2519897222518921, 0.8092401623725891, 10.210073471069336, 0.05314527451992035, -0.09926560521125793, 0.08918632566928864, 48.433998107910156, 15.116000175476074, 7.800000190734863, 173.0, 0.010449990630149841, -0.026256203651428223, 0.4420652389526367, 0.24153973162174225, 0.8354963660240173, 9.7680082321167, 0.0, 0.04149259626865387, 0.01576503925025463, 0.6002278327941895, 286.0, -4.887348263904971, -1.4165010858596028, YAS532 Magnetic Sensor
1536627868943, 0.2519897222518921, 0.8092401623725891, 10.210073471069336, 0.01618792861700058, -0.030237829312682152, -0.016798794269561768, 48.433998107910156, 15.116000175476074, 7.800000190734863, 173.0, 0.010449990630149841, -0.026256203651428223, 0.4420652389526367, 0.24153973162174225, 0.8354963660240173, 9.7680082321167, 0.0, 0.04149259626865387, 0.01576503925025463, 0.6002278327941895, 286.0, -4.887348263904971, -1.4165010858596028, K330 Gyroscope sensor
1536627868946, 0.2519897222518921, 0.8092401623725891, 10.210073471069336, 0.004886921960860491, 0.040622539818286896, -0.011301007121801376, 48.433998107910156, 15.116000175476074, 7.800000190734863, 173.0, 0.010449990630149841, -0.026256203651428223, 0.4420652389526367, 0.24153973162174225, 0.8354963660240173, 9.7680082321167, 0.0, 0.04149259626865387, 0.01576503925025463, 0.6002278327941895, 286.0, -4.887348263904971, -1.4165010858596028, K330 Gyroscope sensor
1536627868948, 0.2519897222518921, 0.8092401623725891, 10.210073471069336, 0.004886921960860491, 0.040622539818286896, -0.011301007121801376, 48.433998107910156, 15.116000175476074, 8.133999824523926, 173.0, 0.010449990630149841, -0.026256203651428223, 0.4420652389526367, 0.24153973162174225, 0.8354963660240173, 9.7680082321167, 0.0, 0.04149259626865387, 0.01576503925025463, 0.6002278327941895, 286.0, -4.887348263904971, -1.4165010858596028, YAS532 Magnetic Sensor
1536627868949, 0.2519897222518921, 0.8092401623725891, 10.210073471069336, 0.004581489134579897, 0.05161811411380768, -0.007941247895359993, 48.433998107910156, 15.116000175476074, 8.133999824523926, 173.0, 0.010449990630149841, -0.026256203651428223, 0.4420652389526367, 0.24153973162174225, 0.8354963660240173, 9.7680082321167, 0.0, 0.04149259626865387, 0.01576503925025463, 0.6002278327941895, 286.0, -4.887348263904971, -1.4165010858596028, K330 Gyroscope sensor
1536627868954, 0.2519897222518921, 0.8092401623725891, 10.210073471069336, 0.001527163083665073, 0.04337143152952194, -0.01160643994808197, 48.433998107910156, 15.116000175476074, 8.133999824523926, 173.0, 0.010449990630149841, -0.026256203651428223, 0.4420652389526367, 0.24153973162174225, 0.8354963660240173, 9.7680082321167, 0.0, 0.04149259626865387, 0.01576503925025463, 0.6002278327941895, 286.0, -4.887348263904971, -1.4165010858596028, K330 Gyroscope sensor
1536627868967, 0.2519897222518921, 0.8092401623725891, 10.210073471069336, 0.001527163083665073, 0.04337143152952194, -0.01160643994808197, 48.433998107910156, 15.116000175476074, 7.543000221252441, 173.0, 0.010449990630149841, -0.026256203651428223, 0.4420652389526367, 0.24153973162174225, 0.8354963660240173, 9.7680082321167, 0.0, 0.04149259626865387, 0.01576503925025463, 0.6002278327941895, 286.0, -4.887348263904971, -1.4165010858596028, YAS532 Magnetic Sensor
1536627868971, 0.2519897222518921, 0.8092401623725891, 10.210073471069336, -0.012828170321881771, 0.04306599870324135, -0.019853120669722557, 48.433998107910156, 15.116000175476074, 7.543000221252441, 173.0, 0.010449990630149841, -0.026256203651428223, 0.4420652389526367, 0.24153973162174225, 0.8354963660240173, 9.7680082321167, 0.0, 0.04149259626865387, 0.01576503925025463, 0.6002278327941895, 286.0, -4.887348263904971, -1.4165010858596028, K330 Gyroscope sensor
1536627868975, 0.2519897222518921, 0.8092401623725891, 10.210073471069336, -0.042760565876960754, 0.048258353024721146, -0.025045474991202354, 48.433998107910156, 15.116000175476074, 7.543000221252441, 173.0, 0.010449990630149841, -0.026256203651428223, 0.4420652389526367, 0.24153973162174225, 0.8354963660240173, 9.7680082321167, 0.0, 0.04149259626865387, 0.01576503925025463, 0.6002278327941895, 286.0, -4.887348263904971, -1.4165010858596028, K330 Gyroscope sensor
1536627868988, 0.2519897222518921, 0.8092401623725891, 10.210073471069336, -0.042760565876960754, 0.048258353024721146, -0.025045474991202354, 48.433998107910156, 15.512999534606934, 7.543000221252441, 173.0, 0.010449990630149841, -0.026256203651428223, 0.4420652389526367, 0.24153973162174225, 0.8354963660240173, 9.7680082321167, 0.0, 0.04149259626865387, 0.01576503925025463, 0.6002278327941895, 286.0, -4.887348263904971, -1.4165010858596028, YAS532 Magnetic Sensor
1536627868989, 0.2519897222518921, 0.8092401623725891, 10.210073471069336, -0.08155050873756409, 0.05742133408784866, -0.014355333521962166, 48.433998107910156, 15.512999534606934, 7.543000221252441, 173.0, 0.010449990630149841, -0.026256203651428223, 0.4420652389526367, 0.24153973162174225, 0.8354963660240173, 9.7680082321167, 0.0, 0.04149259626865387, 0.01576503925025463, 0.6002278327941895, 286.0, -4.887348263904971, -1.4165010858596028, K330 Gyroscope sensor
1536627868994, 0.2519897222518921, 0.8092401623725891, 10.210073471069336, -0.1111774742603302, 0.06322455406188965, 0.008246680721640587, 48.433998107910156, 15.512999534606934, 7.543000221252441, 173.0, 0.010449990630149841, -0.026256203651428223, 0.4420652389526367, 0.24153973162174225, 0.8354963660240173, 9.7680082321167, 0.0, 0.04149259626865387, 0.01576503925025463, 0.6002278327941895, 286.0, -4.887348263904971, -1.4165010858596028, K330 Gyroscope sensor
1536627869006, 0.2519897222518921, 0.8092401623725891, 10.210073471069336, -0.1111774742603302, 0.06322455406188965, 0.008246680721640587, 48.433998107910156, 15.512999534606934, 7.543000221252441, 173.0, 0.010449990630149841, -0.026256203651428223, 0.4420652389526367, 0.24153973162174225, 0.8354963660240173, 9.7680082321167, 0.0, 0.04149259626865387, 0.01576503925025463, 0.6002278327941895, 286.0, -4.887348263904971, -1.4165010858596028, YAS532 Magnetic Sensor
1536627869007, 0.2519897222518921, 0.8092401623725891, 10.210073471069336, -0.11453723162412643, 0.04764748737215996, 0.02687807008624077, 48.433998107910156, 15.512999534606934, 7.543000221252441, 173.0, 0.010449990630149841, -0.026256203651428223, 0.4420652389526367, 0.24153973162174225, 0.8354963660240173, 9.7680082321167, 0.0, 0.04149259626865387, 0.01576503925025463, 0.6002278327941895, 286.0, -4.887348263904971, -1.4165010858596028, K330 Gyroscope sensor
1536627869014, 0.2519897222518921, 0.8092401623725891, 10.210073471069336, -0.09315694868564606, 0.009162978269159794, 0.02932153269648552, 48.433998107910156, 15.512999534606934, 7.543000221252441, 173.0, 0.010449990630149841, -0.026256203651428223, 0.4420652389526367, 0.24153973162174225, 0.8354963660240173, 9.7680082321167, 0.0, 0.04149259626865387, 0.01576503925025463, 0.6002278327941895, 286.0, -4.887348263904971, -1.4165010858596028, K330 Gyroscope sensor
1536627869025, 0.2519897222518921, 0.8092401623725891, 10.210073471069336, -0.09315694868564606, 0.009162978269159794, 0.02932153269648552, 48.433998107910156, 15.512999534606934, 8.57800006866455, 173.0, 0.010449990630149841, -0.026256203651428223, 0.4420652389526367, 0.24153973162174225, 0.8354963660240173, 9.7680082321167, 0.0, 0.04149259626865387, 0.01576503925025463, 0.6002278327941895, 286.0, -4.887348263904971, -1.4165010858596028, YAS532 Magnetic Sensor
1536627869026, 0.2519897222518921, 0.8092401623725891, 10.210073471069336, -0.07666359096765518, -0.029626963660120964, 0.010690141469240189, 48.433998107910156, 15.512999534606934, 8.57800006866455, 173.0, 0.010449990630149841, -0.026256203651428223, 0.4420652389526367, 0.24153973162174225, 0.8354963660240173, 9.7680082321167, 0.0, 0.04149259626865387, 0.01576503925025463, 0.6002278327941895, 286.0, -4.887348263904971, -1.4165010858596028, K330 Gyroscope sensor
1536627869034, 0.2519897222518921, 0.8092401623725891, 10.210073471069336, -0.07819075137376785, -0.039706241339445114, -6.108652451075613E-4, 48.433998107910156, 15.512999534606934, 8.57800006866455, 173.0, 0.010449990630149841, -0.026256203651428223, 0.4420652389526367, 0.24153973162174225, 0.8354963660240173, 9.7680082321167, 0.0, 0.04149259626865387, 0.01576503925025463, 0.6002278327941895, 286.0, -4.887348263904971, -1.4165010858596028, K330 Gyroscope sensor
1536627869045, 0.2519897222518921, 0.8092401623725891, 10.210073471069336, -0.07819075137376785, -0.039706241339445114, -6.108652451075613E-4, 48.433998107910156, 15.512999534606934, 7.692999839782715, 173.0, 0.010449990630149841, -0.026256203651428223, 0.4420652389526367, 0.24153973162174225, 0.8354963660240173, 9.7680082321167, 0.0, 0.04149259626865387, 0.01576503925025463, 0.6002278327941895, 286.0, -4.887348263904971, -1.4165010858596028, YAS532 Magnetic Sensor
1536627869047, 0.2519897222518921, 0.8092401623725891, 10.210073471069336, -0.09040805697441101, -0.032070424407720566, -0.021991148591041565, 48.433998107910156, 15.512999534606934, 7.692999839782715, 173.0, 0.010449990630149841, -0.026256203651428223, 0.4420652389526367, 0.24153973162174225, 0.8354963660240173, 9.7680082321167, 0.0, 0.04149259626865387, 0.01576503925025463, 0.6002278327941895, 286.0, -4.887348263904971, -1.4165010858596028, K330 Gyroscope sensor
1536627869057, 0.2519897222518921, 0.8092401623725891, 10.210073471069336, -0.1014036312699318, -0.0027488935738801956, -0.0403171069920063, 48.433998107910156, 15.512999534606934, 7.692999839782715, 173.0, 0.010449990630149841, -0.026256203651428223, 0.4420652389526367, 0.24153973162174225, 0.8354963660240173, 9.7680082321167, 0.0, 0.04149259626865387, 0.01576503925025463, 0.6002278327941895, 286.0, -4.887348263904971, -1.4165010858596028, K330 Gyroscope sensor
1536627869076, 0.38127660751342773, 0.945111095905304, 9.843161582946777, -0.1014036312699318, -0.0027488935738801956, -0.0403171069920063, 48.433998107910156, 15.512999534606934, 7.692999839782715, 173.0, 0.010449990630149841, -0.026256203651428223, 0.4420652389526367, 0.24153973162174225, 0.8354963660240173, 9.7680082321167, 0.0, 0.04149259626865387, 0.01576503925025463, 0.6002278327941895, 286.0, -4.887348263904971, -1.4165010858596028, K330 3-axis Accelerometer
1536627869078, 0.38127660751342773, 0.945111095905304, 9.843161582946777, -0.1014036312699318, -0.0027488935738801956, -0.0403171069920063, 48.433998107910156, 15.512999534606934, 7.692999839782715, 173.0, 0.010449990630149841, -0.026256203651428223, 0.4420652389526367, 0.2911875545978546, 0.8723448514938354, 9.763432502746582, 0.0, 0.04149259626865387, 0.01576503925025463, 0.6002278327941895, 286.0, -4.887348263904971, -1.4165010858596028, Gravity Sensor
1536627869080, 0.38127660751342773, 0.945111095905304, 9.843161582946777, -0.1014036312699318, -0.0027488935738801956, -0.0403171069920063, 48.433998107910156, 15.512999534606934, 7.692999839782715, 173.0, 0.09008905291557312, 0.0727662444114685, 0.07972908020019531, 0.2911875545978546, 0.8723448514938354, 9.763432502746582, 0.0, 0.04149259626865387, 0.01576503925025463, 0.6002278327941895, 286.0, -4.887348263904971, -1.4165010858596028, Linear Acceleration Sensor
1536627869081, 0.38127660751342773, 0.945111095905304, 9.843161582946777, -0.1014036312699318, -0.0027488935738801956, -0.0403171069920063, 48.433998107910156, 15.512999534606934, 7.692999839782715, 173.0, 0.09008905291557312, 0.0727662444114685, 0.07972908020019531, 0.2911875545978546, 0.8723448514938354, 9.763432502746582, 0.0, 0.04461264982819557, 0.014601568691432476, 0.5953227877616882, 286.0, -5.103444777073596, -1.7083423692112596, Rotation Vector Sensor
1536627869082, 0.38127660751342773, 0.945111095905304, 9.843161582946777, -0.1014036312699318, -0.0027488935738801956, -0.0403171069920063, 48.433998107910156, 15.512999534606934, 7.692999839782715, 173.0, 0.09008905291557312, 0.0727662444114685, 0.07972908020019531, 0.2911875545978546, 0.8723448514938354, 9.763432502746582, 0.0, 0.04461264982819557, 0.014601568691432476, 0.5953227877616882, 286.0, -5.103444777073596, -1.7083423692112596, Orientation Sensor
1536627869084, 0.38127660751342773, 0.945111095905304, 9.843161582946777, -0.1111774742603302, 0.027183502912521362, -0.03940080851316452, 48.433998107910156, 15.512999534606934, 7.692999839782715, 173.0, 0.09008905291557312, 0.0727662444114685, 0.07972908020019531, 0.2911875545978546, 0.8723448514938354, 9.763432502746582, 0.0, 0.04461264982819557, 0.014601568691432476, 0.5953227877616882, 286.0, -5.103444777073596, -1.7083423692112596, K330 Gyroscope sensor
1536627869091, 0.38127660751342773, 0.945111095905304, 9.843161582946777, -0.1111774742603302, 0.027183502912521362, -0.03940080851316452, 48.433998107910156, 15.512999534606934, 8.277000427246094, 173.0, 0.09008905291557312, 0.0727662444114685, 0.07972908020019531, 0.2911875545978546, 0.8723448514938354, 9.763432502746582, 0.0, 0.04461264982819557, 0.014601568691432476, 0.5953227877616882, 286.0, -5.103444777073596, -1.7083423692112596, YAS532 Magnetic Sensor
1536627869094, 0.38127660751342773, 0.945111095905304, 9.843161582946777, -0.1111774742603302, 0.027183502912521362, -0.03940080851316452, 48.433998107910156, 15.512999534606934, 8.277000427246094, 178.0, 0.09008905291557312, 0.0727662444114685, 0.07972908020019531, 0.2911875545978546, 0.8723448514938354, 9.763432502746582, 0.0, 0.04461264982819557, 0.014601568691432476, 0.5953227877616882, 286.0, -5.103444777073596, -1.7083423692112596, CM3323 RGB Sensor
1536627869095, 0.38127660751342773, 0.945111095905304, 9.843161582946777, -0.11148291081190109, 0.04764748737215996, -0.02871066704392433, 48.433998107910156, 15.512999534606934, 8.277000427246094, 178.0, 0.09008905291557312, 0.0727662444114685, 0.07972908020019531, 0.2911875545978546, 0.8723448514938354, 9.763432502746582, 0.0, 0.04461264982819557, 0.014601568691432476, 0.5953227877616882, 286.0, -5.103444777073596, -1.7083423692112596, K330 Gyroscope sensor
1536627869097, 0.38127660751342773, 0.945111095905304, 9.843161582946777, -0.11148291081190109, 0.04764748737215996, -0.02871066704392433, 48.7760009765625, 15.512999534606934, 6.982999801635742, 178.0, 0.09008905291557312, 0.0727662444114685, 0.07972908020019531, 0.2911875545978546, 0.8723448514938354, 9.763432502746582, 0.0, 0.04461264982819557, 0.014601568691432476, 0.5953227877616882, 286.0, -5.103444777073596, -1.7083423692112596, YAS532 Magnetic Sensor
1536627869098, 0.38127660751342773, 0.945111095905304, 9.843161582946777, -0.10567969083786011, 0.05375614017248154, -0.025045474991202354, 48.7760009765625, 15.512999534606934, 6.982999801635742, 178.0, 0.09008905291557312, 0.0727662444114685, 0.07972908020019531, 0.2911875545978546, 0.8723448514938354, 9.763432502746582, 0.0, 0.04461264982819557, 0.014601568691432476, 0.5953227877616882, 286.0, -5.103444777073596, -1.7083423692112596, K330 Gyroscope sensor
1536627869100, 0.38127660751342773, 0.945111095905304, 9.843161582946777, -0.1007927656173706, 0.03573561832308769, -0.03145955875515938, 48.7760009765625, 15.512999534606934, 6.982999801635742, 178.0, 0.09008905291557312, 0.0727662444114685, 0.07972908020019531, 0.2911875545978546, 0.8723448514938354, 9.763432502746582, 0.0, 0.04461264982819557, 0.014601568691432476, 0.5953227877616882, 286.0, -5.103444777073596, -1.7083423692112596, K330 Gyroscope sensor
1536627869108, 0.38127660751342773, 0.945111095905304, 9.843161582946777, -0.1007927656173706, 0.03573561832308769, -0.03145955875515938, 48.7760009765625, 15.512999534606934, 7.973999977111816, 178.0, 0.09008905291557312, 0.0727662444114685, 0.07972908020019531, 0.2911875545978546, 0.8723448514938354, 9.763432502746582, 0.0, 0.04461264982819557, 0.014601568691432476, 0.5953227877616882, 286.0, -5.103444777073596, -1.7083423692112596, YAS532 Magnetic Sensor
1536627869109, 0.38127660751342773, 0.945111095905304, 9.843161582946777, -0.09896016865968704, 0.007941247895359993, -0.04795292019844055, 48.7760009765625, 15.512999534606934, 7.973999977111816, 178.0, 0.09008905291557312, 0.0727662444114685, 0.07972908020019531, 0.2911875545978546, 0.8723448514938354, 9.763432502746582, 0.0, 0.04461264982819557, 0.014601568691432476, 0.5953227877616882, 286.0, -5.103444777073596, -1.7083423692112596, K330 Gyroscope sensor
1536627869115, 0.38127660751342773, 0.945111095905304, 9.843161582946777, -0.09560041129589081, -0.0039706239476799965, -0.052228979766368866, 48.7760009765625, 15.512999534606934, 7.973999977111816, 178.0, 0.09008905291557312, 0.0727662444114685, 0.07972908020019531, 0.2911875545978546, 0.8723448514938354, 9.763432502746582, 0.0, 0.04461264982819557, 0.014601568691432476, 0.5953227877616882, 286.0, -5.103444777073596, -1.7083423692112596, K330 Gyroscope sensor
1536627869127, 0.38127660751342773, 0.945111095905304, 9.843161582946777, -0.09560041129589081, -0.0039706239476799965, -0.052228979766368866, 48.7760009765625, 15.512999534606934, 7.285999774932861, 178.0, 0.09008905291557312, 0.0727662444114685, 0.07972908020019531, 0.2911875545978546, 0.8723448514938354, 9.763432502746582, 0.0, 0.04461264982819557, 0.014601568691432476, 0.5953227877616882, 286.0, -5.103444777073596, -1.7083423692112596, YAS532 Magnetic Sensor
1536627869130, 0.38127660751342773, 0.945111095905304, 9.843161582946777, -0.09743300825357437, -0.006719517521560192, -0.048258353024721146, 48.7760009765625, 15.512999534606934, 7.285999774932861, 178.0, 0.09008905291557312, 0.0727662444114685, 0.07972908020019531, 0.2911875545978546, 0.8723448514938354, 9.763432502746582, 0.0, 0.04461264982819557, 0.014601568691432476, 0.5953227877616882, 286.0, -5.103444777073596, -1.7083423692112596, K330 Gyroscope sensor
1536627869141, 0.38127660751342773, 0.945111095905304, 9.843161582946777, -0.10170906037092209, -0.009162978269159794, -0.0403171069920063, 48.7760009765625, 15.512999534606934, 7.285999774932861, 178.0, 0.09008905291557312, 0.0727662444114685, 0.07972908020019531, 0.2911875545978546, 0.8723448514938354, 9.763432502746582, 0.0, 0.04461264982819557, 0.014601568691432476, 0.5953227877616882, 286.0, -5.103444777073596, -1.7083423692112596, K330 Gyroscope sensor
1536627869148, 0.38127660751342773, 0.945111095905304, 9.843161582946777, -0.10170906037092209, -0.009162978269159794, -0.0403171069920063, 48.7760009765625, 15.512999534606934, 7.714000225067139, 178.0, 0.09008905291557312, 0.0727662444114685, 0.07972908020019531, 0.2911875545978546, 0.8723448514938354, 9.763432502746582, 0.0, 0.04461264982819557, 0.014601568691432476, 0.5953227877616882, 286.0, -5.103444777073596, -1.7083423692112596, YAS532 Magnetic Sensor
1536627869149, 0.38127660751342773, 0.945111095905304, 9.843161582946777, -0.10873401165008545, -0.009162978269159794, -0.02871066704392433, 48.7760009765625, 15.512999534606934, 7.714000225067139, 178.0, 0.09008905291557312, 0.0727662444114685, 0.07972908020019531, 0.2911875545978546, 0.8723448514938354, 9.763432502746582, 0.0, 0.04461264982819557, 0.014601568691432476, 0.5953227877616882, 286.0, -5.103444777073596, -1.7083423692112596, K330 Gyroscope sensor
1536627869156, 0.38127660751342773, 0.945111095905304, 9.843161582946777, -0.12034045159816742, -0.019547687843441963, -0.022907447069883347, 48.7760009765625, 15.512999534606934, 7.714000225067139, 178.0, 0.09008905291557312, 0.0727662444114685, 0.07972908020019531, 0.2911875545978546, 0.8723448514938354, 9.763432502746582, 0.0, 0.04461264982819557, 0.014601568691432476, 0.5953227877616882, 286.0, -5.103444777073596, -1.7083423692112596, K330 Gyroscope sensor
1536627869171, 0.38127660751342773, 0.945111095905304, 9.843161582946777, -0.12034045159816742, -0.019547687843441963, -0.022907447069883347, 48.7760009765625, 15.512999534606934, 7.714000225067139, 178.0, 0.09008905291557312, 0.0727662444114685, 0.07972908020019531, 0.2911875545978546, 0.8723448514938354, 9.763432502746582, 0.0, 0.04461264982819557, 0.014601568691432476, 0.5953227877616882, 286.0, -5.103444777073596, -1.7083423692112596, YAS532 Magnetic Sensor
1536627869172, 0.38127660751342773, 0.945111095905304, 9.843161582946777, -0.13927727937698364, -0.02382374368607998, -0.021074850112199783, 48.7760009765625, 15.512999534606934, 7.714000225067139, 178.0, 0.09008905291557312, 0.0727662444114685, 0.07972908020019531, 0.2911875545978546, 0.8723448514938354, 9.763432502746582, 0.0, 0.04461264982819557, 0.014601568691432476, 0.5953227877616882, 286.0, -5.103444777073596, -1.7083423692112596, K330 Gyroscope sensor
1536627869174, 0.38127660751342773, 0.945111095905304, 9.843161582946777, -0.1560760736465454, -0.027488935738801956, -0.02168571576476097, 48.7760009765625, 15.512999534606934, 7.714000225067139, 178.0, 0.09008905291557312, 0.0727662444114685, 0.07972908020019531, 0.2911875545978546, 0.8723448514938354, 9.763432502746582, 0.0, 0.04461264982819557, 0.014601568691432476, 0.5953227877616882, 286.0, -5.103444777073596, -1.7083423692112596, K330 Gyroscope sensor
1536627869188, 0.38127660751342773, 0.945111095905304, 9.843161582946777, -0.1560760736465454, -0.027488935738801956, -0.02168571576476097, 48.7760009765625, 15.512999534606934, 7.714000225067139, 178.0, 0.09008905291557312, 0.0727662444114685, 0.07972908020019531, 0.2911875545978546, 0.8723448514938354, 9.763432502746582, 0.0, 0.04461264982819557, 0.014601568691432476, 0.5953227877616882, 286.0, -5.103444777073596, -1.7083423692112596, YAS532 Magnetic Sensor
1536627869189, 0.38127660751342773, 0.945111095905304, 9.843161582946777, -0.16279558837413788, -0.030237829312682152, -0.010079276748001575, 48.7760009765625, 15.512999534606934, 7.714000225067139, 178.0, 0.09008905291557312, 0.0727662444114685, 0.07972908020019531, 0.2911875545978546, 0.8723448514938354, 9.763432502746582, 0.0, 0.04461264982819557, 0.014601568691432476, 0.5953227877616882, 286.0, -5.103444777073596, -1.7083423692112596, K330 Gyroscope sensor
1536627869195, 0.38127660751342773, 0.945111095905304, 9.843161582946777, -0.1722639948129654, -0.028099801391363144, -0.00366519158706069, 48.7760009765625, 15.512999534606934, 7.714000225067139, 178.0, 0.09008905291557312, 0.0727662444114685, 0.07972908020019531, 0.2911875545978546, 0.8723448514938354, 9.763432502746582, 0.0, 0.04461264982819557, 0.014601568691432476, 0.5953227877616882, 286.0, -5.103444777073596, -1.7083423692112596, K330 Gyroscope sensor
1536627869209, 0.38127660751342773, 0.945111095905304, 9.843161582946777, -0.1722639948129654, -0.028099801391363144, -0.00366519158706069, 49.176998138427734, 15.512999534606934, 7.714000225067139, 178.0, 0.09008905291557312, 0.0727662444114685, 0.07972908020019531, 0.2911875545978546, 0.8723448514938354, 9.763432502746582, 0.0, 0.04461264982819557, 0.014601568691432476, 0.5953227877616882, 286.0, -5.103444777073596, -1.7083423692112596, YAS532 Magnetic Sensor
1536627869210, 0.38127660751342773, 0.945111095905304, 9.843161582946777, -0.1722639948129654, -0.021991148591041565, 0.006108652334660292, 49.176998138427734, 15.512999534606934, 7.714000225067139, 178.0, 0.09008905291557312, 0.0727662444114685, 0.07972908020019531, 0.2911875545978546, 0.8723448514938354, 9.763432502746582, 0.0, 0.04461264982819557, 0.014601568691432476, 0.5953227877616882, 286.0, -5.103444777073596, -1.7083423692112596, K330 Gyroscope sensor
1536627869216, 0.38127660751342773, 0.945111095905304, 9.843161582946777, -0.16249015927314758, -0.02474004216492176, 0.01038470957428217, 49.176998138427734, 15.512999534606934, 7.714000225067139, 178.0, 0.09008905291557312, 0.0727662444114685, 0.07972908020019531, 0.2911875545978546, 0.8723448514938354, 9.763432502746582, 0.0, 0.04461264982819557, 0.014601568691432476, 0.5953227877616882, 286.0, -5.103444777073596, -1.7083423692112596, K330 Gyroscope sensor
1536627869229, 0.38127660751342773, 0.945111095905304, 9.843161582946777, -0.16249015927314758, -0.02474004216492176, 0.01038470957428217, 49.176998138427734, 15.512999534606934, 7.714000225067139, 178.0, 0.09008905291557312, 0.0727662444114685, 0.07972908020019531, 0.2911875545978546, 0.8723448514938354, 9.763432502746582, 0.0, 0.04461264982819557, 0.014601568691432476, 0.5953227877616882, 286.0, -5.103444777073596, -1.7083423692112596, YAS532 Magnetic Sensor
1536627869231, 0.38127660751342773, 0.945111095905304, 9.843161582946777, -0.15546520054340363, -0.03451388701796532, 0.009468411095440388, 49.176998138427734, 15.512999534606934, 7.714000225067139, 178.0, 0.09008905291557312, 0.0727662444114685, 0.07972908020019531, 0.2911875545978546, 0.8723448514938354, 9.763432502746582, 0.0, 0.04461264982819557, 0.014601568691432476, 0.5953227877616882, 286.0, -5.103444777073596, -1.7083423692112596, K330 Gyroscope sensor
1536627869239, 0.38127660751342773, 0.945111095905304, 9.843161582946777, -0.14905111491680145, -0.03573561832308769, 0.008246680721640587, 49.176998138427734, 15.512999534606934, 7.714000225067139, 178.0, 0.09008905291557312, 0.0727662444114685, 0.07972908020019531, 0.2911875545978546, 0.8723448514938354, 9.763432502746582, 0.0, 0.04461264982819557, 0.014601568691432476, 0.5953227877616882, 286.0, -5.103444777073596, -1.7083423692112596, K330 Gyroscope sensor
1536627869258, 0.30286651849746704, 0.9576807022094727, 9.77133560180664, -0.14905111491680145, -0.03573561832308769, 0.008246680721640587, 49.176998138427734, 15.512999534606934, 7.714000225067139, 178.0, 0.09008905291557312, 0.0727662444114685, 0.07972908020019531, 0.2911875545978546, 0.8723448514938354, 9.763432502746582, 0.0, 0.04461264982819557, 0.014601568691432476, 0.5953227877616882, 286.0, -5.103444777073596, -1.7083423692112596, K330 3-axis Accelerometer
1536627869260, 0.30286651849746704, 0.9576807022094727, 9.77133560180664, -0.14905111491680145, -0.03573561832308769, 0.008246680721640587, 49.176998138427734, 15.512999534606934, 7.714000225067139, 178.0, 0.09008905291557312, 0.0727662444114685, 0.07972908020019531, 0.2943951189517975, 0.8963572978973389, 9.761161804199219, 0.0, 0.04461264982819557, 0.014601568691432476, 0.5953227877616882, 286.0, -5.103444777073596, -1.7083423692112596, Gravity Sensor
1536627869261, 0.30286651849746704, 0.9576807022094727, 9.77133560180664, -0.14905111491680145, -0.03573561832308769, 0.008246680721640587, 49.176998138427734, 15.512999534606934, 7.714000225067139, 178.0, 0.008471399545669556, 0.06132340431213379, 0.010173797607421875, 0.2943951189517975, 0.8963572978973389, 9.761161804199219, 0.0, 0.04461264982819557, 0.014601568691432476, 0.5953227877616882, 286.0, -5.103444777073596, -1.7083423692112596, Linear Acceleration Sensor
1536627869263, 0.30286651849746704, 0.9576807022094727, 9.77133560180664, -0.14905111491680145, -0.03573561832308769, 0.008246680721640587, 49.176998138427734, 15.512999534606934, 7.714000225067139, 178.0, 0.008471399545669556, 0.06132340431213379, 0.010173797607421875, 0.2943951189517975, 0.8963572978973389, 9.761161804199219, 0.0, 0.04568839073181152, 0.01522750686854124, 0.5957363843917847, 286.0, -5.244332796630742, -1.7274897373323326, Rotation Vector Sensor
1536627869265, 0.30286651849746704, 0.9576807022094727, 9.77133560180664, -0.14905111491680145, -0.03573561832308769, 0.008246680721640587, 49.176998138427734, 15.512999534606934, 7.714000225067139, 178.0, 0.008471399545669556, 0.06132340431213379, 0.010173797607421875, 0.2943951189517975, 0.8963572978973389, 9.761161804199219, 0.0, 0.04568839073181152, 0.01522750686854124, 0.5957363843917847, 286.0, -5.244332796630742, -1.7274897373323326, Orientation Sensor
1536627869277, 0.30286651849746704, 0.9576807022094727, 9.77133560180664, -0.13805554807186127, -0.03145955875515938, 0.00427605677396059, 49.176998138427734, 15.512999534606934, 7.714000225067139, 178.0, 0.008471399545669556, 0.06132340431213379, 0.010173797607421875, 0.2943951189517975, 0.8963572978973389, 9.761161804199219, 0.0, 0.04568839073181152, 0.01522750686854124, 0.5957363843917847, 286.0, -5.244332796630742, -1.7274897373323326, K330 Gyroscope sensor
1536627869279, 0.30286651849746704, 0.9576807022094727, 9.77133560180664, -0.13805554807186127, -0.03145955875515938, 0.00427605677396059, 49.176998138427734, 15.512999534606934, 7.714000225067139, 178.0, 0.008471399545669556, 0.06132340431213379, 0.010173797607421875, 0.2943951189517975, 0.8963572978973389, 9.761161804199219, 0.0, 0.04568839073181152, 0.01522750686854124, 0.5957363843917847, 286.0, -5.244332796630742, -1.7274897373323326, YAS532 Magnetic Sensor
1536627869281, 0.30286651849746704, 0.9576807022094727, 9.77133560180664, -0.13805554807186127, -0.03145955875515938, 0.00427605677396059, 49.176998138427734, 15.512999534606934, 7.714000225067139, 178.0, 0.008471399545669556, 0.06132340431213379, 0.010173797607421875, 0.2943951189517975, 0.8963572978973389, 9.761161804199219, 997.1099853515625, 0.04568839073181152, 0.01522750686854124, 0.5957363843917847, 286.0, -5.244332796630742, -1.7274897373323326, Barometer Sensor
1536627869283, 0.30286651849746704, 0.9576807022094727, 9.77133560180664, -0.13805554807186127, -0.03145955875515938, 0.00427605677396059, 49.176998138427734, 15.512999534606934, 7.714000225067139, 189.0, 0.008471399545669556, 0.06132340431213379, 0.010173797607421875, 0.2943951189517975, 0.8963572978973389, 9.761161804199219, 997.1099853515625, 0.04568839073181152, 0.01522750686854124, 0.5957363843917847, 286.0, -5.244332796630742, -1.7274897373323326, CM3323 RGB Sensor
1536627869292, 0.30286651849746704, 0.9576807022094727, 9.77133560180664, -0.12308934330940247, -0.025045474991202354, 0.00733038317412138, 49.176998138427734, 15.512999534606934, 7.714000225067139, 189.0, 0.008471399545669556, 0.06132340431213379, 0.010173797607421875, 0.2943951189517975, 0.8963572978973389, 9.761161804199219, 997.1099853515625, 0.04568839073181152, 0.01522750686854124, 0.5957363843917847, 286.0, -5.244332796630742, -1.7274897373323326, K330 Gyroscope sensor
1536627869294, 0.30286651849746704, 0.9576807022094727, 9.77133560180664, -0.12308934330940247, -0.025045474991202354, 0.00733038317412138, 49.176998138427734, 15.512999534606934, 7.714000225067139, 189.0, 0.008471399545669556, 0.06132340431213379, 0.010173797607421875, 0.2943951189517975, 0.8963572978973389, 9.761161804199219, 997.1099853515625, 0.04568839073181152, 0.01522750686854124, 0.5957363843917847, 286.0, -5.244332796630742, -1.7274897373323326, YAS532 Magnetic Sensor
1536627869296, 0.30286651849746704, 0.9576807022094727, 9.77133560180664, -0.11362093687057495, -0.025656340643763542, 0.0039706239476799965, 49.176998138427734, 15.512999534606934, 7.714000225067139, 189.0, 0.008471399545669556, 0.06132340431213379, 0.010173797607421875, 0.2943951189517975, 0.8963572978973389, 9.761161804199219, 997.1099853515625, 0.04568839073181152, 0.01522750686854124, 0.5957363843917847, 286.0, -5.244332796630742, -1.7274897373323326, K330 Gyroscope sensor
1536627869297, 0.30286651849746704, 0.9576807022094727, 9.77133560180664, -0.09804387390613556, -0.03329215571284294, 9.162978967651725E-4, 49.176998138427734, 15.512999534606934, 7.714000225067139, 189.0, 0.008471399545669556, 0.06132340431213379, 0.010173797607421875, 0.2943951189517975, 0.8963572978973389, 9.761161804199219, 997.1099853515625, 0.04568839073181152, 0.01522750686854124, 0.5957363843917847, 286.0, -5.244332796630742, -1.7274897373323326, K330 Gyroscope sensor
1536627869298, 0.30286651849746704, 0.9576807022094727, 9.77133560180664, -0.09804387390613556, -0.03329215571284294, 9.162978967651725E-4, 49.507999420166016, 15.512999534606934, 7.714000225067139, 189.0, 0.008471399545669556, 0.06132340431213379, 0.010173797607421875, 0.2943951189517975, 0.8963572978973389, 9.761161804199219, 997.1099853515625, 0.04568839073181152, 0.01522750686854124, 0.5957363843917847, 286.0, -5.244332796630742, -1.7274897373323326, YAS532 Magnetic Sensor
1536627869299, 0.30286651849746704, 0.9576807022094727, 9.77133560180664, -0.09773843735456467, -0.05711590126156807, -0.005192354787141085, 49.507999420166016, 15.512999534606934, 7.714000225067139, 189.0, 0.008471399545669556, 0.06132340431213379, 0.010173797607421875, 0.2943951189517975, 0.8963572978973389, 9.761161804199219, 997.1099853515625, 0.04568839073181152, 0.01522750686854124, 0.5957363843917847, 286.0, -5.244332796630742, -1.7274897373323326, K330 Gyroscope sensor
1536627869306, 0.30286651849746704, 0.9576807022094727, 9.77133560180664, -0.12064588814973831, -0.08949175477027893, -0.02015855349600315, 49.507999420166016, 15.512999534606934, 7.714000225067139, 189.0, 0.008471399545669556, 0.06132340431213379, 0.010173797607421875, 0.2943951189517975, 0.8963572978973389, 9.761161804199219, 997.1099853515625, 0.04568839073181152, 0.01522750686854124, 0.5957363843917847, 286.0, -5.244332796630742, -1.7274897373323326, K330 Gyroscope sensor
1536627869307, 0.30286651849746704, 0.9576807022094727, 9.77133560180664, -0.12064588814973831, -0.08949175477027893, -0.02015855349600315, 49.507999420166016, 15.512999534606934, 7.714000225067139, 189.0, 0.008471399545669556, 0.06132340431213379, 0.010173797607421875, 0.2943951189517975, 0.8963572978973389, 9.761161804199219, 997.1099853515625, 0.04568839073181152, 0.01522750686854124, 0.5957363843917847, 286.0, -5.244332796630742, -1.7274897373323326, YAS532 Magnetic Sensor
1536627869308, 0.30286651849746704, 0.9576807022094727, 9.77133560180664, -0.17592918872833252, -0.10048733651638031, -0.0403171069920063, 49.507999420166016, 15.512999534606934, 7.714000225067139, 189.0, 0.008471399545669556, 0.06132340431213379, 0.010173797607421875, 0.2943951189517975, 0.8963572978973389, 9.761161804199219, 997.1099853515625, 0.04568839073181152, 0.01522750686854124, 0.5957363843917847, 286.0, -5.244332796630742, -1.7274897373323326, K330 Gyroscope sensor
1536627869316, 0.30286651849746704, 0.9576807022094727, 9.77133560180664, -0.24404066801071167, -0.07452555745840073, -0.061391957104206085, 49.507999420166016, 15.512999534606934, 7.714000225067139, 189.0, 0.008471399545669556, 0.06132340431213379, 0.010173797607421875, 0.2943951189517975, 0.8963572978973389, 9.761161804199219, 997.1099853515625, 0.04568839073181152, 0.01522750686854124, 0.5957363843917847, 286.0, -5.244332796630742, -1.7274897373323326, K330 Gyroscope sensor
1536627869325, 0.30286651849746704, 0.9576807022094727, 9.77133560180664, -0.24404066801071167, -0.07452555745840073, -0.061391957104206085, 49.507999420166016, 15.512999534606934, 7.714000225067139, 189.0, 0.008471399545669556, 0.06132340431213379, 0.010173797607421875, 0.2943951189517975, 0.8963572978973389, 9.761161804199219, 997.1099853515625, 0.04568839073181152, 0.01522750686854124, 0.5957363843917847, 286.0, -5.244332796630742, -1.7274897373323326, YAS532 Magnetic Sensor
1536627869326, 0.30286651849746704, 0.9576807022094727, 9.77133560180664, -0.2977968156337738, -0.036651913076639175, -0.07299839705228806, 49.507999420166016, 15.512999534606934, 7.714000225067139, 189.0, 0.008471399545669556, 0.06132340431213379, 0.010173797607421875, 0.2943951189517975, 0.8963572978973389, 9.761161804199219, 997.1099853515625, 0.04568839073181152, 0.01522750686854124, 0.5957363843917847, 286.0, -5.244332796630742, -1.7274897373323326, K330 Gyroscope sensor
1536627869334, 0.30286651849746704, 0.9576807022094727, 9.77133560180664, -0.32009339332580566, 0.003054326167330146, -0.07147123664617538, 49.507999420166016, 15.512999534606934, 7.714000225067139, 189.0, 0.008471399545669556, 0.06132340431213379, 0.010173797607421875, 0.2943951189517975, 0.8963572978973389, 9.761161804199219, 997.1099853515625, 0.04568839073181152, 0.01522750686854124, 0.5957363843917847, 286.0, -5.244332796630742, -1.7274897373323326, K330 Gyroscope sensor
1536627869348, 0.30286651849746704, 0.9576807022094727, 9.77133560180664, -0.32009339332580566, 0.003054326167330146, -0.07147123664617538, 49.507999420166016, 15.512999534606934, 7.714000225067139, 189.0, 0.008471399545669556, 0.06132340431213379, 0.010173797607421875, 0.2943951189517975, 0.8963572978973389, 9.761161804199219, 997.1099853515625, 0.04568839073181152, 0.01522750686854124, 0.5957363843917847, 286.0, -5.244332796630742, -1.7274897373323326, YAS532 Magnetic Sensor
1536627869350, 0.30286651849746704, 0.9576807022094727, 9.77133560180664, -0.31612277030944824, 0.009468411095440388, -0.0659734457731247, 49.507999420166016, 15.512999534606934, 7.714000225067139, 189.0, 0.008471399545669556, 0.06132340431213379, 0.010173797607421875, 0.2943951189517975, 0.8963572978973389, 9.761161804199219, 997.1099853515625, 0.04568839073181152, 0.01522750686854124, 0.5957363843917847, 286.0, -5.244332796630742, -1.7274897373323326, K330 Gyroscope sensor
1536627869362, 0.30286651849746704, 0.9576807022094727, 9.77133560180664, -0.2877175211906433, -0.00427605677396059, -0.05711590126156807, 49.507999420166016, 15.512999534606934, 7.714000225067139, 189.0, 0.008471399545669556, 0.06132340431213379, 0.010173797607421875, 0.2943951189517975, 0.8963572978973389, 9.761161804199219, 997.1099853515625, 0.04568839073181152, 0.01522750686854124, 0.5957363843917847, 286.0, -5.244332796630742, -1.7274897373323326, K330 Gyroscope sensor
1536627869369, 0.30286651849746704, 0.9576807022094727, 9.77133560180664, -0.2877175211906433, -0.00427605677396059, -0.05711590126156807, 49.808998107910156, 15.512999534606934, 7.714000225067139, 189.0, 0.008471399545669556, 0.06132340431213379, 0.010173797607421875, 0.2943951189517975, 0.8963572978973389, 9.761161804199219, 997.1099853515625, 0.04568839073181152, 0.01522750686854124, 0.5957363843917847, 286.0, -5.244332796630742, -1.7274897373323326, YAS532 Magnetic Sensor
1536627869370, 0.30286651849746704, 0.9576807022094727, 9.77133560180664, -0.25931230187416077, -0.044287730008363724, -0.055894169956445694, 49.808998107910156, 15.512999534606934, 7.714000225067139, 189.0, 0.008471399545669556, 0.06132340431213379, 0.010173797607421875, 0.2943951189517975, 0.8963572978973389, 9.761161804199219, 997.1099853515625, 0.04568839073181152, 0.01522750686854124, 0.5957363843917847, 286.0, -5.244332796630742, -1.7274897373323326, K330 Gyroscope sensor
1536627869377, 0.30286651849746704, 0.9576807022094727, 9.77133560180664, -0.25106561183929443, -0.076052725315094, -0.06383541971445084, 49.808998107910156, 15.512999534606934, 7.714000225067139, 189.0, 0.008471399545669556, 0.06132340431213379, 0.010173797607421875, 0.2943951189517975, 0.8963572978973389, 9.761161804199219, 997.1099853515625, 0.04568839073181152, 0.01522750686854124, 0.5957363843917847, 286.0, -5.244332796630742, -1.7274897373323326, K330 Gyroscope sensor
1536627869388, 0.30286651849746704, 0.9576807022094727, 9.77133560180664, -0.25106561183929443, -0.076052725315094, -0.06383541971445084, 49.808998107910156, 15.871999740600586, 7.714000225067139, 189.0, 0.008471399545669556, 0.06132340431213379, 0.010173797607421875, 0.2943951189517975, 0.8963572978973389, 9.761161804199219, 997.1099853515625, 0.04568839073181152, 0.01522750686854124, 0.5957363843917847, 286.0, -5.244332796630742, -1.7274897373323326, YAS532 Magnetic Sensor
1536627869389, 0.30286651849746704, 0.9576807022094727, 9.77133560180664, -0.2632829248905182, -0.09773843735456467, -0.07635815441608429, 49.808998107910156, 15.871999740600586, 7.714000225067139, 189.0, 0.008471399545669556, 0.06132340431213379, 0.010173797607421875, 0.2943951189517975, 0.8963572978973389, 9.761161804199219, 997.1099853515625, 0.04568839073181152, 0.01522750686854124, 0.5957363843917847, 286.0, -5.244332796630742, -1.7274897373323326, K330 Gyroscope sensor
1536627869398, 0.30286651849746704, 0.9576807022094727, 9.77133560180664, -0.2941316068172455, -0.09865473955869675, -0.08857546001672745, 49.808998107910156, 15.871999740600586, 7.714000225067139, 189.0, 0.008471399545669556, 0.06132340431213379, 0.010173797607421875, 0.2943951189517975, 0.8963572978973389, 9.761161804199219, 997.1099853515625, 0.04568839073181152, 0.01522750686854124, 0.5957363843917847, 286.0, -5.244332796630742, -1.7274897373323326, K330 Gyroscope sensor
1536627869409, 0.30286651849746704, 0.9576807022094727, 9.77133560180664, -0.2941316068172455, -0.09865473955869675, -0.08857546001672745, 49.808998107910156, 15.871999740600586, 7.714000225067139, 189.0, 0.008471399545669556, 0.06132340431213379, 0.010173797607421875, 0.2943951189517975, 0.8963572978973389, 9.761161804199219, 997.1099853515625, 0.04568839073181152, 0.01522750686854124, 0.5957363843917847, 286.0, -5.244332796630742, -1.7274897373323326, YAS532 Magnetic Sensor
1536627869410, 0.30286651849746704, 0.9576807022094727, 9.77133560180664, -0.3219259977340698, -0.0757472887635231, -0.09437867999076843, 49.808998107910156, 15.871999740600586, 7.714000225067139, 189.0, 0.008471399545669556, 0.06132340431213379, 0.010173797607421875, 0.2943951189517975, 0.8963572978973389, 9.761161804199219, 997.1099853515625, 0.04568839073181152, 0.01522750686854124, 0.5957363843917847, 286.0, -5.244332796630742, -1.7274897373323326, K330 Gyroscope sensor
1536627869416, 0.30286651849746704, 0.9576807022094727, 9.77133560180664, -0.3280346393585205, -0.05650503560900688, -0.08796459436416626, 49.808998107910156, 15.871999740600586, 7.714000225067139, 189.0, 0.008471399545669556, 0.06132340431213379, 0.010173797607421875, 0.2943951189517975, 0.8963572978973389, 9.761161804199219, 997.1099853515625, 0.04568839073181152, 0.01522750686854124, 0.5957363843917847, 286.0, -5.244332796630742, -1.7274897373323326, K330 Gyroscope sensor
1536627869434, 0.365115761756897, 0.9989806413650513, 10.137049674987793, -0.3280346393585205, -0.05650503560900688, -0.08796459436416626, 49.808998107910156, 15.871999740600586, 7.714000225067139, 189.0, 0.008471399545669556, 0.06132340431213379, 0.010173797607421875, 0.2943951189517975, 0.8963572978973389, 9.761161804199219, 997.1099853515625, 0.04568839073181152, 0.01522750686854124, 0.5957363843917847, 286.0, -5.244332796630742, -1.7274897373323326, K330 3-axis Accelerometer
1536627869436, 0.365115761756897, 0.9989806413650513, 10.137049674987793, -0.3280346393585205, -0.05650503560900688, -0.08796459436416626, 49.808998107910156, 15.871999740600586, 7.714000225067139, 189.0, 0.008471399545669556, 0.06132340431213379, 0.010173797607421875, 0.29385820031166077, 0.8197150826454163, 9.767911911010742, 997.1099853515625, 0.04568839073181152, 0.01522750686854124, 0.5957363843917847, 286.0, -5.244332796630742, -1.7274897373323326, Gravity Sensor
1536627869437, 0.365115761756897, 0.9989806413650513, 10.137049674987793, -0.3280346393585205, -0.05650503560900688, -0.08796459436416626, 49.808998107910156, 15.871999740600586, 7.714000225067139, 189.0, 0.0712575614452362, 0.179265558719635, 0.3691377639770508, 0.29385820031166077, 0.8197150826454163, 9.767911911010742, 997.1099853515625, 0.04568839073181152, 0.01522750686854124, 0.5957363843917847, 286.0, -5.244332796630742, -1.7274897373323326, Linear Acceleration Sensor
1536627869439, 0.365115761756897, 0.9989806413650513, 10.137049674987793, -0.3280346393585205, -0.05650503560900688, -0.08796459436416626, 49.808998107910156, 15.871999740600586, 7.714000225067139, 189.0, 0.0712575614452362, 0.179265558719635, 0.3691377639770508, 0.29385820031166077, 0.8197150826454163, 9.767911911010742, 997.1099853515625, 0.04470353201031685, 0.014812454581260681, 0.5971060991287231, 286.0, -5.122445082684102, -1.7066038726240798, Rotation Vector Sensor
1536627869440, 0.365115761756897, 0.9989806413650513, 10.137049674987793, -0.3280346393585205, -0.05650503560900688, -0.08796459436416626, 49.808998107910156, 15.871999740600586, 7.714000225067139, 189.0, 0.0712575614452362, 0.179265558719635, 0.3691377639770508, 0.29385820031166077, 0.8197150826454163, 9.767911911010742, 997.1099853515625, 0.04470353201031685, 0.014812454581260681, 0.5971060991287231, 286.0, -5.122445082684102, -1.7066038726240798, Orientation Sensor
1536627869442, 0.365115761756897, 0.9989806413650513, 10.137049674987793, -0.3081815242767334, -0.039706241339445114, -0.07971791177988052, 49.808998107910156, 15.871999740600586, 7.714000225067139, 189.0, 0.0712575614452362, 0.179265558719635, 0.3691377639770508, 0.29385820031166077, 0.8197150826454163, 9.767911911010742, 997.1099853515625, 0.04470353201031685, 0.014812454581260681, 0.5971060991287231, 286.0, -5.122445082684102, -1.7066038726240798, K330 Gyroscope sensor
1536627869443, 0.365115761756897, 0.9989806413650513, 10.137049674987793, -0.3081815242767334, -0.039706241339445114, -0.07971791177988052, 49.808998107910156, 15.871999740600586, 7.714000225067139, 189.0, 0.0712575614452362, 0.179265558719635, 0.3691377639770508, 0.29385820031166077, 0.8197150826454163, 9.767911911010742, 997.1099853515625, 0.04470353201031685, 0.014812454581260681, 0.5971060991287231, 286.0, -5.122445082684102, -1.7066038726240798, YAS532 Magnetic Sensor
1536627869445, 0.365115761756897, 0.9989806413650513, 10.137049674987793, -0.3081815242767334, -0.039706241339445114, -0.07971791177988052, 49.808998107910156, 15.871999740600586, 7.714000225067139, 189.0, 0.0712575614452362, 0.179265558719635, 0.3691377639770508, 0.29385820031166077, 0.8197150826454163, 9.767911911010742, 997.0999755859375, 0.04470353201031685, 0.014812454581260681, 0.5971060991287231, 286.0, -5.122445082684102, -1.7066038726240798, Barometer Sensor
1536627869446, 0.365115761756897, 0.9989806413650513, 10.137049674987793, -0.3081815242767334, -0.039706241339445114, -0.07971791177988052, 49.808998107910156, 15.871999740600586, 7.714000225067139, 201.0, 0.0712575614452362, 0.179265558719635, 0.3691377639770508, 0.29385820031166077, 0.8197150826454163, 9.767911911010742, 997.0999755859375, 0.04470353201031685, 0.014812454581260681, 0.5971060991287231, 286.0, -5.122445082684102, -1.7066038726240798, CM3323 RGB Sensor
1536627869448, 0.365115761756897, 0.9989806413650513, 10.137049674987793, -0.2922990322113037, -0.015271631069481373, -0.07757988572120667, 49.808998107910156, 15.871999740600586, 7.714000225067139, 201.0, 0.0712575614452362, 0.179265558719635, 0.3691377639770508, 0.29385820031166077, 0.8197150826454163, 9.767911911010742, 997.0999755859375, 0.04470353201031685, 0.014812454581260681, 0.5971060991287231, 286.0, -5.122445082684102, -1.7066038726240798, K330 Gyroscope sensor
1536627869449, 0.365115761756897, 0.9989806413650513, 10.137049674987793, -0.2922990322113037, -0.015271631069481373, -0.07757988572120667, 49.808998107910156, 15.871999740600586, 7.714000225067139, 201.0, 0.0712575614452362, 0.179265558719635, 0.3691377639770508, 0.29385820031166077, 0.8197150826454163, 9.767911911010742, 997.0999755859375, 0.04470353201031685, 0.014812454581260681, 0.5971060991287231, 286.0, -5.122445082684102, -1.7066038726240798, YAS532 Magnetic Sensor
1536627869451, 0.365115761756897, 0.9989806413650513, 10.137049674987793, -0.25595253705978394, -0.003054326167330146, -0.0757472887635231, 49.808998107910156, 15.871999740600586, 7.714000225067139, 201.0, 0.0712575614452362, 0.179265558719635, 0.3691377639770508, 0.29385820031166077, 0.8197150826454163, 9.767911911010742, 997.0999755859375, 0.04470353201031685, 0.014812454581260681, 0.5971060991287231, 286.0, -5.122445082684102, -1.7066038726240798, K330 Gyroscope sensor
1536627869456, 0.365115761756897, 0.9989806413650513, 10.137049674987793, -0.2226603776216507, 0.013439035043120384, -0.07880161702632904, 49.808998107910156, 15.871999740600586, 7.714000225067139, 201.0, 0.0712575614452362, 0.179265558719635, 0.3691377639770508, 0.29385820031166077, 0.8197150826454163, 9.767911911010742, 997.0999755859375, 0.04470353201031685, 0.014812454581260681, 0.5971060991287231, 286.0, -5.122445082684102, -1.7066038726240798, K330 Gyroscope sensor
1536627869477, 0.365115761756897, 0.9989806413650513, 10.137049674987793, -0.2226603776216507, 0.013439035043120384, -0.07880161702632904, 49.808998107910156, 16.27899932861328, 7.714000225067139, 201.0, 0.0712575614452362, 0.179265558719635, 0.3691377639770508, 0.29385820031166077, 0.8197150826454163, 9.767911911010742, 997.0999755859375, 0.04470353201031685, 0.014812454581260681, 0.5971060991287231, 286.0, -5.122445082684102, -1.7066038726240798, YAS532 Magnetic Sensor
1536627869479, 0.365115761756897, 0.9989806413650513, 10.137049674987793, -0.19975294172763824, 0.021380282938480377, -0.0913243517279625, 49.808998107910156, 16.27899932861328, 7.714000225067139, 201.0, 0.0712575614452362, 0.179265558719635, 0.3691377639770508, 0.29385820031166077, 0.8197150826454163, 9.767911911010742, 997.0999755859375, 0.04470353201031685, 0.014812454581260681, 0.5971060991287231, 286.0, -5.122445082684102, -1.7066038726240798, K330 Gyroscope sensor
1536627869481, 0.365115761756897, 0.9989806413650513, 10.137049674987793, -0.1817324161529541, 0.02168571576476097, -0.09712757170200348, 49.808998107910156, 16.27899932861328, 7.714000225067139, 201.0, 0.0712575614452362, 0.179265558719635, 0.3691377639770508, 0.29385820031166077, 0.8197150826454163, 9.767911911010742, 997.0999755859375, 0.04470353201031685, 0.014812454581260681, 0.5971060991287231, 286.0, -5.122445082684102, -1.7066038726240798, K330 Gyroscope sensor
1536627869489, 0.365115761756897, 0.9989806413650513, 10.137049674987793, -0.1817324161529541, 0.02168571576476097, -0.09712757170200348, 50.125999450683594, 16.27899932861328, 7.714000225067139, 201.0, 0.0712575614452362, 0.179265558719635, 0.3691377639770508, 0.29385820031166077, 0.8197150826454163, 9.767911911010742, 997.0999755859375, 0.04470353201031685, 0.014812454581260681, 0.5971060991287231, 286.0, -5.122445082684102, -1.7066038726240798, YAS532 Magnetic Sensor
1536627869490, 0.365115761756897, 0.9989806413650513, 10.137049674987793, -0.17470745742321014, 0.014966198243200779, -0.09743300825357437, 50.125999450683594, 16.27899932861328, 7.714000225067139, 201.0, 0.0712575614452362, 0.179265558719635, 0.3691377639770508, 0.29385820031166077, 0.8197150826454163, 9.767911911010742, 997.0999755859375, 0.04470353201031685, 0.014812454581260681, 0.5971060991287231, 286.0, -5.122445082684102, -1.7066038726240798, K330 Gyroscope sensor
1536627869494, 0.365115761756897, 0.9989806413650513, 10.137049674987793, -0.16401731967926025, -0.0027488935738801956, -0.09254608303308487, 50.125999450683594, 16.27899932861328, 7.714000225067139, 201.0, 0.0712575614452362, 0.179265558719635, 0.3691377639770508, 0.29385820031166077, 0.8197150826454163, 9.767911911010742, 997.0999755859375, 0.04470353201031685, 0.014812454581260681, 0.5971060991287231, 286.0, -5.122445082684102, -1.7066038726240798, K330 Gyroscope sensor
1536627869506, 0.365115761756897, 0.9989806413650513, 10.137049674987793, -0.16401731967926025, -0.0027488935738801956, -0.09254608303308487, 50.125999450683594, 16.27899932861328, 7.714000225067139, 201.0, 0.0712575614452362, 0.179265558719635, 0.3691377639770508, 0.29385820031166077, 0.8197150826454163, 9.767911911010742, 997.0999755859375, 0.04470353201031685, 0.014812454581260681, 0.5971060991287231, 286.0, -5.122445082684102, -1.7066038726240798, YAS532 Magnetic Sensor
1536627869508, 0.365115761756897, 0.9989806413650513, 10.137049674987793, -0.15546520054340363, -0.025045474991202354, -0.08674286305904388, 50.125999450683594, 16.27899932861328, 7.714000225067139, 201.0, 0.0712575614452362, 0.179265558719635, 0.3691377639770508, 0.29385820031166077, 0.8197150826454163, 9.767911911010742, 997.0999755859375, 0.04470353201031685, 0.014812454581260681, 0.5971060991287231, 286.0, -5.122445082684102, -1.7066038726240798, K330 Gyroscope sensor
1536627869514, 0.365115761756897, 0.9989806413650513, 10.137049674987793, -0.14508049190044403, -0.03878994286060333, -0.07727445662021637, 50.125999450683594, 16.27899932861328, 7.714000225067139, 201.0, 0.0712575614452362, 0.179265558719635, 0.3691377639770508, 0.29385820031166077, 0.8197150826454163, 9.767911911010742, 997.0999755859375, 0.04470353201031685, 0.014812454581260681, 0.5971060991287231, 286.0, -5.122445082684102, -1.7066038726240798, K330 Gyroscope sensor
1536627869526, 0.365115761756897, 0.9989806413650513, 10.137049674987793, -0.14508049190044403, -0.03878994286060333, -0.07727445662021637, 50.125999450683594, 16.6560001373291, 7.714000225067139, 201.0, 0.0712575614452362, 0.179265558719635, 0.3691377639770508, 0.29385820031166077, 0.8197150826454163, 9.767911911010742, 997.0999755859375, 0.04470353201031685, 0.014812454581260681, 0.5971060991287231, 286.0, -5.122445082684102, -1.7066038726240798, YAS532 Magnetic Sensor
1536627869528, 0.365115761756897, 0.9989806413650513, 10.137049674987793, -0.1518000066280365, -0.07757988572120667, -0.07757988572120667, 50.125999450683594, 16.6560001373291, 7.714000225067139, 201.0, 0.0712575614452362, 0.179265558719635, 0.3691377639770508, 0.29385820031166077, 0.8197150826454163, 9.767911911010742, 997.0999755859375, 0.04470353201031685, 0.014812454581260681, 0.5971060991287231, 286.0, -5.122445082684102, -1.7066038726240798, K330 Gyroscope sensor
1536627869534, 0.365115761756897, 0.9989806413650513, 10.137049674987793, -0.16371189057826996, -0.11728613078594208, -0.08491026610136032, 50.125999450683594, 16.6560001373291, 7.714000225067139, 201.0, 0.0712575614452362, 0.179265558719635, 0.3691377639770508, 0.29385820031166077, 0.8197150826454163, 9.767911911010742, 997.0999755859375, 0.04470353201031685, 0.014812454581260681, 0.5971060991287231, 286.0, -5.122445082684102, -1.7066038726240798, K330 Gyroscope sensor
1536627869546, 0.365115761756897, 0.9989806413650513, 10.137049674987793, -0.16371189057826996, -0.11728613078594208, -0.08491026610136032, 50.125999450683594, 16.6560001373291, 7.714000225067139, 201.0, 0.0712575614452362, 0.179265558719635, 0.3691377639770508, 0.29385820031166077, 0.8197150826454163, 9.767911911010742, 997.0999755859375, 0.04470353201031685, 0.014812454581260681, 0.5971060991287231, 286.0, -5.122445082684102, -1.7066038726240798, YAS532 Magnetic Sensor
1536627869549, 0.365115761756897, 0.9989806413650513, 10.137049674987793, -0.16920967400074005, -0.14049901068210602, -0.07880161702632904, 50.125999450683594, 16.6560001373291, 7.714000225067139, 201.0, 0.0712575614452362, 0.179265558719635, 0.3691377639770508, 0.29385820031166077, 0.8197150826454163, 9.767911911010742, 997.0999755859375, 0.04470353201031685, 0.014812454581260681, 0.5971060991287231, 286.0, -5.122445082684102, -1.7066038726240798, K330 Gyroscope sensor
1536627869555, 0.365115761756897, 0.9989806413650513, 10.137049674987793, -0.14446963369846344, -0.1215621829032898, -0.03420845419168472, 50.125999450683594, 16.6560001373291, 7.714000225067139, 201.0, 0.0712575614452362, 0.179265558719635, 0.3691377639770508, 0.29385820031166077, 0.8197150826454163, 9.767911911010742, 997.0999755859375, 0.04470353201031685, 0.014812454581260681, 0.5971060991287231, 286.0, -5.122445082684102, -1.7066038726240798, K330 Gyroscope sensor
1536627869566, 0.365115761756897, 0.9989806413650513, 10.137049674987793, -0.14446963369846344, -0.1215621829032898, -0.03420845419168472, 50.125999450683594, 16.9689998626709, 7.714000225067139, 201.0, 0.0712575614452362, 0.179265558719635, 0.3691377639770508, 0.29385820031166077, 0.8197150826454163, 9.767911911010742, 997.0999755859375, 0.04470353201031685, 0.014812454581260681, 0.5971060991287231, 286.0, -5.122445082684102, -1.7066038726240798, YAS532 Magnetic Sensor
1536627869568, 0.365115761756897, 0.9989806413650513, 10.137049674987793, -0.07269296050071716, -0.06750060617923737, 0.03481931984424591, 50.125999450683594, 16.9689998626709, 7.714000225067139, 201.0, 0.0712575614452362, 0.179265558719635, 0.3691377639770508, 0.29385820031166077, 0.8197150826454163, 9.767911911010742, 997.0999755859375, 0.04470353201031685, 0.014812454581260681, 0.5971060991287231, 286.0, -5.122445082684102, -1.7066038726240798, K330 Gyroscope sensor
1536627869605, 0.365115761756897, 0.9989806413650513, 10.137049674987793, -0.07269296050071716, -0.06750060617923737, 0.03481931984424591, 50.45899963378906, 16.9689998626709, 7.714000225067139, 201.0, 0.0712575614452362, 0.179265558719635, 0.3691377639770508, 0.29385820031166077, 0.8197150826454163, 9.767911911010742, 997.0999755859375, 0.04470353201031685, 0.014812454581260681, 0.5971060991287231, 286.0, -5.122445082684102, -1.7066038726240798, YAS532 Magnetic Sensor
1536627869609, 0.365115761756897, 0.9989806413650513, 10.137049674987793, 0.03451388701796532, -0.012828170321881771, 0.12095131725072861, 50.45899963378906, 16.9689998626709, 7.714000225067139, 201.0, 0.0712575614452362, 0.179265558719635, 0.3691377639770508, 0.29385820031166077, 0.8197150826454163, 9.767911911010742, 997.0999755859375, 0.04470353201031685, 0.014812454581260681, 0.5971060991287231, 286.0, -5.122445082684102, -1.7066038726240798, K330 Gyroscope sensor
1536627869612, 0.365115761756897, 0.9989806413650513, 10.137049674987793, 0.08643743395805359, 0.02321287989616394, 0.1621847152709961, 50.45899963378906, 16.9689998626709, 7.714000225067139, 201.0, 0.0712575614452362, 0.179265558719635, 0.3691377639770508, 0.29385820031166077, 0.8197150826454163, 9.767911911010742, 997.0999755859375, 0.04470353201031685, 0.014812454581260681, 0.5971060991287231, 286.0, -5.122445082684102, -1.7066038726240798, K330 Gyroscope sensor
1536627869612, 0.365115761756897, 0.9989806413650513, 10.137049674987793, 0.14019356667995453, 0.025045474991202354, 0.2064724564552307, 50.45899963378906, 16.9689998626709, 7.714000225067139, 201.0, 0.0712575614452362, 0.179265558719635, 0.3691377639770508, 0.29385820031166077, 0.8197150826454163, 9.767911911010742, 997.0999755859375, 0.04470353201031685, 0.014812454581260681, 0.5971060991287231, 286.0, -5.122445082684102, -1.7066038726240798, K330 Gyroscope sensor
1536627869613, 1.0007762908935547, 2.0925323963165283, 9.112930297851563, 0.14019356667995453, 0.025045474991202354, 0.2064724564552307, 50.45899963378906, 16.9689998626709, 7.714000225067139, 201.0, 0.0712575614452362, 0.179265558719635, 0.3691377639770508, 0.29385820031166077, 0.8197150826454163, 9.767911911010742, 997.0999755859375, 0.04470353201031685, 0.014812454581260681, 0.5971060991287231, 286.0, -5.122445082684102, -1.7066038726240798, K330 3-axis Accelerometer
1536627869614, 1.0007762908935547, 2.0925323963165283, 9.112930297851563, 0.14019356667995453, 0.025045474991202354, 0.2064724564552307, 50.45899963378906, 16.9689998626709, 7.714000225067139, 201.0, 0.0712575614452362, 0.179265558719635, 0.3691377639770508, 0.3193318247795105, 0.5696506500244141, 9.784881591796875, 997.0999755859375, 0.04470353201031685, 0.014812454581260681, 0.5971060991287231, 286.0, -5.122445082684102, -1.7066038726240798, Gravity Sensor
1536627869615, 1.0007762908935547, 2.0925323963165283, 9.112930297851563, 0.14019356667995453, 0.025045474991202354, 0.2064724564552307, 50.45899963378906, 16.9689998626709, 7.714000225067139, 201.0, 0.6814444661140442, 1.5228817462921143, -0.6719512939453125, 0.3193318247795105, 0.5696506500244141, 9.784881591796875, 997.0999755859375, 0.04470353201031685, 0.014812454581260681, 0.5971060991287231, 286.0, -5.122445082684102, -1.7066038726240798, Linear Acceleration Sensor
1536627869615, 1.0007762908935547, 2.0925323963165283, 9.112930297851563, 0.14019356667995453, 0.025045474991202354, 0.2064724564552307, 50.45899963378906, 16.9689998626709, 7.714000225067139, 201.0, 0.6814444661140442, 1.5228817462921143, -0.6719512939453125, 0.3193318247795105, 0.5696506500244141, 9.784881591796875, 997.0999755859375, 0.032589323818683624, 0.003951906226575375, 0.5900471806526184, 287.0, -3.2815940553668335, -1.8415259353846307, Rotation Vector Sensor
1536627869616, 1.0007762908935547, 2.0925323963165283, 9.112930297851563, 0.14019356667995453, 0.025045474991202354, 0.2064724564552307, 50.45899963378906, 16.9689998626709, 7.714000225067139, 201.0, 0.6814444661140442, 1.5228817462921143, -0.6719512939453125, 0.3193318247795105, 0.5696506500244141, 9.784881591796875, 997.0999755859375, 0.032589323818683624, 0.003951906226575375, 0.5900471806526184, 287.0, -3.2815940553668335, -1.8415259353846307, Orientation Sensor
1536627869617, 1.0007762908935547, 2.0925323963165283, 9.112930297851563, 0.0959058403968811, -0.03481931984424591, 0.1768454909324646, 50.45899963378906, 16.9689998626709, 7.714000225067139, 201.0, 0.6814444661140442, 1.5228817462921143, -0.6719512939453125, 0.3193318247795105, 0.5696506500244141, 9.784881591796875, 997.0999755859375, 0.032589323818683624, 0.003951906226575375, 0.5900471806526184, 287.0, -3.2815940553668335, -1.8415259353846307, K330 Gyroscope sensor
1536627869617, 1.0007762908935547, 2.0925323963165283, 9.112930297851563, 0.0959058403968811, -0.03481931984424591, 0.1768454909324646, 50.45899963378906, 16.9689998626709, 7.714000225067139, 201.0, 0.6814444661140442, 1.5228817462921143, -0.6719512939453125, 0.3193318247795105, 0.5696506500244141, 9.784881591796875, 997.0999755859375, 0.032589323818683624, 0.003951906226575375, 0.5900471806526184, 287.0, -3.2815940553668335, -1.8415259353846307, YAS532 Magnetic Sensor
1536627869618, 1.0007762908935547, 2.0925323963165283, 9.112930297851563, 0.0959058403968811, -0.03481931984424591, 0.1768454909324646, 50.45899963378906, 16.9689998626709, 7.714000225067139, 201.0, 0.6814444661140442, 1.5228817462921143, -0.6719512939453125, 0.3193318247795105, 0.5696506500244141, 9.784881591796875, 997.1199951171875, 0.032589323818683624, 0.003951906226575375, 0.5900471806526184, 287.0, -3.2815940553668335, -1.8415259353846307, Barometer Sensor
1536627869619, 1.0007762908935547, 2.0925323963165283, 9.112930297851563, 0.0959058403968811, -0.03481931984424591, 0.1768454909324646, 50.45899963378906, 16.9689998626709, 7.714000225067139, 228.0, 0.6814444661140442, 1.5228817462921143, -0.6719512939453125, 0.3193318247795105, 0.5696506500244141, 9.784881591796875, 997.1199951171875, 0.032589323818683624, 0.003951906226575375, 0.5900471806526184, 287.0, -3.2815940553668335, -1.8415259353846307, CM3323 RGB Sensor
1536627869619, 1.0007762908935547, 2.0925323963165283, 9.112930297851563, -0.029016099870204926, -0.16310101747512817, 0.10781771689653397, 50.45899963378906, 16.9689998626709, 7.714000225067139, 228.0, 0.6814444661140442, 1.5228817462921143, -0.6719512939453125, 0.3193318247795105, 0.5696506500244141, 9.784881591796875, 997.1199951171875, 0.032589323818683624, 0.003951906226575375, 0.5900471806526184, 287.0, -3.2815940553668335, -1.8415259353846307, K330 Gyroscope sensor
1536627869630, 1.0007762908935547, 2.0925323963165283, 9.112930297851563, -0.029016099870204926, -0.16310101747512817, 0.10781771689653397, 50.45899963378906, 17.384000778198242, 7.714000225067139, 228.0, 0.6814444661140442, 1.5228817462921143, -0.6719512939453125, 0.3193318247795105, 0.5696506500244141, 9.784881591796875, 997.1199951171875, 0.032589323818683624, 0.003951906226575375, 0.5900471806526184, 287.0, -3.2815940553668335, -1.8415259353846307, YAS532 Magnetic Sensor
1536627869631, 1.0007762908935547, 2.0925323963165283, 9.112930297851563, -0.17318029701709747, -0.2721404731273651, 0.045204028487205505, 50.45899963378906, 17.384000778198242, 7.714000225067139, 228.0, 0.6814444661140442, 1.5228817462921143, -0.6719512939453125, 0.3193318247795105, 0.5696506500244141, 9.784881591796875, 997.1199951171875, 0.032589323818683624, 0.003951906226575375, 0.5900471806526184, 287.0, -3.2815940553668335, -1.8415259353846307, K330 Gyroscope sensor
1536627869637, 1.0007762908935547, 2.0925323963165283, 9.112930297851563, -0.2929098904132843, -0.29138273000717163, -0.005497787147760391, 50.45899963378906, 17.384000778198242, 7.714000225067139, 228.0, 0.6814444661140442, 1.5228817462921143, -0.6719512939453125, 0.3193318247795105, 0.5696506500244141, 9.784881591796875, 997.1199951171875, 0.032589323818683624, 0.003951906226575375, 0.5900471806526184, 287.0, -3.2815940553668335, -1.8415259353846307, K330 Gyroscope sensor
1536627869649, 1.0007762908935547, 2.0925323963165283, 9.112930297851563, -0.2929098904132843, -0.29138273000717163, -0.005497787147760391, 50.45899963378906, 17.384000778198242, 7.714000225067139, 228.0, 0.6814444661140442, 1.5228817462921143, -0.6719512939453125, 0.3193318247795105, 0.5696506500244141, 9.784881591796875, 997.1199951171875, 0.032589323818683624, 0.003951906226575375, 0.5900471806526184, 287.0, -3.2815940553668335, -1.8415259353846307, YAS532 Magnetic Sensor
1536627869649, 1.0007762908935547, 2.0925323963165283, 9.112930297851563, -0.3735440969467163, -0.19456058740615845, -0.04092797264456749, 50.45899963378906, 17.384000778198242, 7.714000225067139, 228.0, 0.6814444661140442, 1.5228817462921143, -0.6719512939453125, 0.3193318247795105, 0.5696506500244141, 9.784881591796875, 997.1199951171875, 0.032589323818683624, 0.003951906226575375, 0.5900471806526184, 287.0, -3.2815940553668335, -1.8415259353846307, K330 Gyroscope sensor
1536627869655, 1.0007762908935547, 2.0925323963165283, 9.112930297851563, -0.3995058834552765, -0.02076941914856434, -0.056810468435287476, 50.45899963378906, 17.384000778198242, 7.714000225067139, 228.0, 0.6814444661140442, 1.5228817462921143, -0.6719512939453125, 0.3193318247795105, 0.5696506500244141, 9.784881591796875, 997.1199951171875, 0.032589323818683624, 0.003951906226575375, 0.5900471806526184, 287.0, -3.2815940553668335, -1.8415259353846307, K330 Gyroscope sensor
1536627869669, 1.0007762908935547, 2.0925323963165283, 9.112930297851563, -0.3995058834552765, -0.02076941914856434, -0.056810468435287476, 50.45899963378906, 17.709999084472656, 7.714000225067139, 228.0, 0.6814444661140442, 1.5228817462921143, -0.6719512939453125, 0.3193318247795105, 0.5696506500244141, 9.784881591796875, 997.1199951171875, 0.032589323818683624, 0.003951906226575375, 0.5900471806526184, 287.0, -3.2815940553668335, -1.8415259353846307, YAS532 Magnetic Sensor
1536627869670, 1.0007762908935547, 2.0925323963165283, 9.112930297851563, -0.39095374941825867, 0.15424346923828125, -0.051312681287527084, 50.45899963378906, 17.709999084472656, 7.714000225067139, 228.0, 0.6814444661140442, 1.5228817462921143, -0.6719512939453125, 0.3193318247795105, 0.5696506500244141, 9.784881591796875, 997.1199951171875, 0.032589323818683624, 0.003951906226575375, 0.5900471806526184, 287.0, -3.2815940553668335, -1.8415259353846307, K330 Gyroscope sensor
1536627869677, 1.0007762908935547, 2.0925323963165283, 9.112930297851563, -0.3497203588485718, 0.2217440903186798, -0.02015855349600315, 50.45899963378906, 17.709999084472656, 7.714000225067139, 228.0, 0.6814444661140442, 1.5228817462921143, -0.6719512939453125, 0.3193318247795105, 0.5696506500244141, 9.784881591796875, 997.1199951171875, 0.032589323818683624, 0.003951906226575375, 0.5900471806526184, 287.0, -3.2815940553668335, -1.8415259353846307, K330 Gyroscope sensor
1536627869691, 1.0007762908935547, 2.0925323963165283, 9.112930297851563, -0.3497203588485718, 0.2217440903186798, -0.02015855349600315, 50.819000244140625, 17.709999084472656, 7.714000225067139, 228.0, 0.6814444661140442, 1.5228817462921143, -0.6719512939453125, 0.3193318247795105, 0.5696506500244141, 9.784881591796875, 997.1199951171875, 0.032589323818683624, 0.003951906226575375, 0.5900471806526184, 287.0, -3.2815940553668335, -1.8415259353846307, YAS532 Magnetic Sensor
1536627869692, 1.0007762908935547, 2.0925323963165283, 9.112930297851563, -0.29565876722335815, 0.308792382478714, 0.015882495790719986, 50.819000244140625, 17.709999084472656, 7.714000225067139, 228.0, 0.6814444661140442, 1.5228817462921143, -0.6719512939453125, 0.3193318247795105, 0.5696506500244141, 9.784881591796875, 997.1199951171875, 0.032589323818683624, 0.003951906226575375, 0.5900471806526184, 287.0, -3.2815940553668335, -1.8415259353846307, K330 Gyroscope sensor
1536627869694, 1.0007762908935547, 2.0925323963165283, 9.112930297851563, -0.2483167201280594, 0.33200526237487793, 0.03237585723400116, 50.819000244140625, 17.709999084472656, 7.714000225067139, 228.0, 0.6814444661140442, 1.5228817462921143, -0.6719512939453125, 0.3193318247795105, 0.5696506500244141, 9.784881591796875, 997.1199951171875, 0.032589323818683624, 0.003951906226575375, 0.5900471806526184, 287.0, -3.2815940553668335, -1.8415259353846307, K330 Gyroscope sensor
1536627869710, 1.0007762908935547, 2.0925323963165283, 9.112930297851563, -0.2483167201280594, 0.33200526237487793, 0.03237585723400116, 50.819000244140625, 18.051000595092773, 7.714000225067139, 228.0, 0.6814444661140442, 1.5228817462921143, -0.6719512939453125, 0.3193318247795105, 0.5696506500244141, 9.784881591796875, 997.1199951171875, 0.032589323818683624, 0.003951906226575375, 0.5900471806526184, 287.0, -3.2815940553668335, -1.8415259353846307, YAS532 Magnetic Sensor
1536627869711, 1.0007762908935547, 2.0925323963165283, 9.112930297851563, -0.2217440903186798, 0.28619036078453064, 0.009162978269159794, 50.819000244140625, 18.051000595092773, 7.714000225067139, 228.0, 0.6814444661140442, 1.5228817462921143, -0.6719512939453125, 0.3193318247795105, 0.5696506500244141, 9.784881591796875, 997.1199951171875, 0.032589323818683624, 0.003951906226575375, 0.5900471806526184, 287.0, -3.2815940553668335, -1.8415259353846307, K330 Gyroscope sensor
1536627869716, 1.0007762908935547, 2.0925323963165283, 9.112930297851563, -0.20922134816646576, 0.21410827338695526, -0.04795292019844055, 50.819000244140625, 18.051000595092773, 7.714000225067139, 228.0, 0.6814444661140442, 1.5228817462921143, -0.6719512939453125, 0.3193318247795105, 0.5696506500244141, 9.784881591796875, 997.1199951171875, 0.032589323818683624, 0.003951906226575375, 0.5900471806526184, 287.0, -3.2815940553668335, -1.8415259353846307, K330 Gyroscope sensor
1536627869730, 1.0007762908935547, 2.0925323963165283, 9.112930297851563, -0.20922134816646576, 0.21410827338695526, -0.04795292019844055, 50.819000244140625, 18.051000595092773, 7.714000225067139, 228.0, 0.6814444661140442, 1.5228817462921143, -0.6719512939453125, 0.3193318247795105, 0.5696506500244141, 9.784881591796875, 997.1199951171875, 0.032589323818683624, 0.003951906226575375, 0.5900471806526184, 287.0, -3.2815940553668335, -1.8415259353846307, YAS532 Magnetic Sensor
1536627869732, 1.0007762908935547, 2.0925323963165283, 9.112930297851563, -0.19456058740615845, 0.15271630883216858, -0.11545353382825851, 50.819000244140625, 18.051000595092773, 7.714000225067139, 228.0, 0.6814444661140442, 1.5228817462921143, -0.6719512939453125, 0.3193318247795105, 0.5696506500244141, 9.784881591796875, 997.1199951171875, 0.032589323818683624, 0.003951906226575375, 0.5900471806526184, 287.0, -3.2815940553668335, -1.8415259353846307, K330 Gyroscope sensor
1536627869735, 1.0007762908935547, 2.0925323963165283, 9.112930297851563, -0.16768251359462738, 0.10659598559141159, -0.16554448008537292, 50.819000244140625, 18.051000595092773, 7.714000225067139, 228.0, 0.6814444661140442, 1.5228817462921143, -0.6719512939453125, 0.3193318247795105, 0.5696506500244141, 9.784881591796875, 997.1199951171875, 0.032589323818683624, 0.003951906226575375, 0.5900471806526184, 287.0, -3.2815940553668335, -1.8415259353846307, K330 Gyroscope sensor
1536627869750, 1.0007762908935547, 2.0925323963165283, 9.112930297851563, -0.16768251359462738, 0.10659598559141159, -0.16554448008537292, 51.25400161743164, 18.392000198364258, 7.330999851226807, 228.0, 0.6814444661140442, 1.5228817462921143, -0.6719512939453125, 0.3193318247795105, 0.5696506500244141, 9.784881591796875, 997.1199951171875, 0.032589323818683624, 0.003951906226575375, 0.5900471806526184, 287.0, -3.2815940553668335, -1.8415259353846307, YAS532 Magnetic Sensor
1536627869752, 1.0007762908935547, 2.0925323963165283, 9.112930297851563, -0.15729780495166779, 0.06169738993048668, -0.17440202832221985, 51.25400161743164, 18.392000198364258, 7.330999851226807, 228.0, 0.6814444661140442, 1.5228817462921143, -0.6719512939453125, 0.3193318247795105, 0.5696506500244141, 9.784881591796875, 997.1199951171875, 0.032589323818683624, 0.003951906226575375, 0.5900471806526184, 287.0, -3.2815940553668335, -1.8415259353846307, K330 Gyroscope sensor
1536627869755, 1.0007762908935547, 2.0925323963165283, 9.112930297851563, -0.15577064454555511, 0.04398229718208313, -0.14569136500358582, 51.25400161743164, 18.392000198364258, 7.330999851226807, 228.0, 0.6814444661140442, 1.5228817462921143, -0.6719512939453125, 0.3193318247795105, 0.5696506500244141, 9.784881591796875, 997.1199951171875, 0.032589323818683624, 0.003951906226575375, 0.5900471806526184, 287.0, -3.2815940553668335, -1.8415259353846307, K330 Gyroscope sensor
1536627869770, 1.0007762908935547, 2.0925323963165283, 9.112930297851563, -0.15577064454555511, 0.04398229718208313, -0.14569136500358582, 51.25400161743164, 18.392000198364258, 7.330999851226807, 228.0, 0.6814444661140442, 1.5228817462921143, -0.6719512939453125, 0.3193318247795105, 0.5696506500244141, 9.784881591796875, 997.1199951171875, 0.032589323818683624, 0.003951906226575375, 0.5900471806526184, 287.0, -3.2815940553668335, -1.8415259353846307, YAS532 Magnetic Sensor
1536627869774, 1.0007762908935547, 2.0925323963165283, 9.112930297851563, -0.1820378452539444, 0.05619960278272629, -0.06750060617923737, 51.25400161743164, 18.392000198364258, 7.330999851226807, 228.0, 0.6814444661140442, 1.5228817462921143, -0.6719512939453125, 0.3193318247795105, 0.5696506500244141, 9.784881591796875, 997.1199951171875, 0.032589323818683624, 0.003951906226575375, 0.5900471806526184, 287.0, -3.2815940553668335, -1.8415259353846307, K330 Gyroscope sensor
1536627869776, 1.0007762908935547, 2.0925323963165283, 9.112930297851563, -0.22357667982578278, 0.12889257073402405, 0.005803219974040985, 51.25400161743164, 18.392000198364258, 7.330999851226807, 228.0, 0.6814444661140442, 1.5228817462921143, -0.6719512939453125, 0.3193318247795105, 0.5696506500244141, 9.784881591796875, 997.1199951171875, 0.032589323818683624, 0.003951906226575375, 0.5900471806526184, 287.0, -3.2815940553668335, -1.8415259353846307, K330 Gyroscope sensor
1536627869795, 0.7996633648872375, 1.9069817066192627, 11.23718547821045, -0.22357667982578278, 0.12889257073402405, 0.005803219974040985, 51.25400161743164, 18.392000198364258, 7.330999851226807, 228.0, 0.6814444661140442, 1.5228817462921143, -0.6719512939453125, 0.3193318247795105, 0.5696506500244141, 9.784881591796875, 997.1199951171875, 0.032589323818683624, 0.003951906226575375, 0.5900471806526184, 287.0, -3.2815940553668335, -1.8415259353846307, K330 3-axis Accelerometer
1536627869798, 0.7996633648872375, 1.9069817066192627, 11.23718547821045, -0.22357667982578278, 0.12889257073402405, 0.005803219974040985, 51.25400161743164, 18.392000198364258, 7.330999851226807, 228.0, 0.6814444661140442, 1.5228817462921143, -0.6719512939453125, 0.14787112176418304, 0.07121586799621582, 9.805276870727539, 997.1199951171875, 0.032589323818683624, 0.003951906226575375, 0.5900471806526184, 287.0, -3.2815940553668335, -1.8415259353846307, Gravity Sensor
1536627869800, 0.7996633648872375, 1.9069817066192627, 11.23718547821045, -0.22357667982578278, 0.12889257073402405, 0.005803219974040985, 51.25400161743164, 18.392000198364258, 7.330999851226807, 228.0, 0.6517922282218933, 1.8357658386230469, 1.4319086074829102, 0.14787112176418304, 0.07121586799621582, 9.805276870727539, 997.1199951171875, 0.032589323818683624, 0.003951906226575375, 0.5900471806526184, 287.0, -3.2815940553668335, -1.8415259353846307, Linear Acceleration Sensor
1536627869802, 0.7996633648872375, 1.9069817066192627, 11.23718547821045, -0.22357667982578278, 0.12889257073402405, 0.005803219974040985, 51.25400161743164, 18.392000198364258, 7.330999851226807, 228.0, 0.6517922282218933, 1.8357658386230469, 1.4319086074829102, 0.14787112176418304, 0.07121586799621582, 9.805276870727539, 997.1199951171875, 0.010389961302280426, -0.0041531287133693695, 0.5774011611938477, 289.0, -0.6972123702616789, -1.0761258656480104, Rotation Vector Sensor
1536627869806, 0.7996633648872375, 1.9069817066192627, 11.23718547821045, -0.22357667982578278, 0.12889257073402405, 0.005803219974040985, 51.25400161743164, 18.392000198364258, 7.330999851226807, 228.0, 0.6517922282218933, 1.8357658386230469, 1.4319086074829102, 0.14787112176418304, 0.07121586799621582, 9.805276870727539, 997.1199951171875, 0.010389961302280426, -0.0041531287133693695, 0.5774011611938477, 289.0, -0.6972123702616789, -1.0761258656480104, Orientation Sensor
1536627869808, 0.7996633648872375, 1.9069817066192627, 11.23718547821045, -0.23609942197799683, 0.18936823308467865, 0.009773843921720982, 51.25400161743164, 18.392000198364258, 7.330999851226807, 228.0, 0.6517922282218933, 1.8357658386230469, 1.4319086074829102, 0.14787112176418304, 0.07121586799621582, 9.805276870727539, 997.1199951171875, 0.010389961302280426, -0.0041531287133693695, 0.5774011611938477, 289.0, -0.6972123702616789, -1.0761258656480104, K330 Gyroscope sensor
1536627869812, 0.7996633648872375, 1.9069817066192627, 11.23718547821045, -0.23609942197799683, 0.18936823308467865, 0.009773843921720982, 51.60300064086914, 18.709999084472656, 7.330999851226807, 228.0, 0.6517922282218933, 1.8357658386230469, 1.4319086074829102, 0.14787112176418304, 0.07121586799621582, 9.805276870727539, 997.1199951171875, 0.010389961302280426, -0.0041531287133693695, 0.5774011611938477, 289.0, -0.6972123702616789, -1.0761258656480104, YAS532 Magnetic Sensor
1536627869815, 0.7996633648872375, 1.9069817066192627, 11.23718547821045, -0.23609942197799683, 0.18936823308467865, 0.009773843921720982, 51.60300064086914, 18.709999084472656, 7.330999851226807, 228.0, 0.6517922282218933, 1.8357658386230469, 1.4319086074829102, 0.14787112176418304, 0.07121586799621582, 9.805276870727539, 997.1300048828125, 0.010389961302280426, -0.0041531287133693695, 0.5774011611938477, 289.0, -0.6972123702616789, -1.0761258656480104, Barometer Sensor
1536627869817, 0.7996633648872375, 1.9069817066192627, 11.23718547821045, -0.23609942197799683, 0.18936823308467865, 0.009773843921720982, 51.60300064086914, 18.709999084472656, 7.330999851226807, 289.0, 0.6517922282218933, 1.8357658386230469, 1.4319086074829102, 0.14787112176418304, 0.07121586799621582, 9.805276870727539, 997.1300048828125, 0.010389961302280426, -0.0041531287133693695, 0.5774011611938477, 289.0, -0.6972123702616789, -1.0761258656480104, CM3323 RGB Sensor
1536627869819, 0.7996633648872375, 1.9069817066192627, 11.23718547821045, -0.1661553531885147, 0.21044307947158813, -0.0555887371301651, 51.60300064086914, 18.709999084472656, 7.330999851226807, 289.0, 0.6517922282218933, 1.8357658386230469, 1.4319086074829102, 0.14787112176418304, 0.07121586799621582, 9.805276870727539, 997.1300048828125, 0.010389961302280426, -0.0041531287133693695, 0.5774011611938477, 289.0, -0.6972123702616789, -1.0761258656480104, K330 Gyroscope sensor
1536627869822, 0.7996633648872375, 1.9069817066192627, 11.23718547821045, -0.1661553531885147, 0.21044307947158813, -0.0555887371301651, 52.15599822998047, 18.709999084472656, 7.330999851226807, 289.0, 0.6517922282218933, 1.8357658386230469, 1.4319086074829102, 0.14787112176418304, 0.07121586799621582, 9.805276870727539, 997.1300048828125, 0.010389961302280426, -0.0041531287133693695, 0.5774011611938477, 289.0, -0.6972123702616789, -1.0761258656480104, YAS532 Magnetic Sensor
1536627869826, 0.7996633648872375, 1.9069817066192627, 11.23718547821045, -0.06352998316287994, 0.2125810980796814, -0.08185594528913498, 52.15599822998047, 18.709999084472656, 7.330999851226807, 289.0, 0.6517922282218933, 1.8357658386230469, 1.4319086074829102, 0.14787112176418304, 0.07121586799621582, 9.805276870727539, 997.1300048828125, 0.010389961302280426, -0.0041531287133693695, 0.5774011611938477, 289.0, -0.6972123702616789, -1.0761258656480104, K330 Gyroscope sensor
1536627869827, 0.7996633648872375, 1.9069817066192627, 11.23718547821045, 0.04795292019844055, 0.2382374405860901, -0.013133603148162365, 52.15599822998047, 18.709999084472656, 7.330999851226807, 289.0, 0.6517922282218933, 1.8357658386230469, 1.4319086074829102, 0.14787112176418304, 0.07121586799621582, 9.805276870727539, 997.1300048828125, 0.010389961302280426, -0.0041531287133693695, 0.5774011611938477, 289.0, -0.6972123702616789, -1.0761258656480104, K330 Gyroscope sensor
1536627869828, 0.7996633648872375, 1.9069817066192627, 11.23718547821045, 0.04795292019844055, 0.2382374405860901, -0.013133603148162365, 53.479000091552734, 19.010000228881836, 6.9029998779296875, 289.0, 0.6517922282218933, 1.8357658386230469, 1.4319086074829102, 0.14787112176418304, 0.07121586799621582, 9.805276870727539, 997.1300048828125, 0.010389961302280426, -0.0041531287133693695, 0.5774011611938477, 289.0, -0.6972123702616789, -1.0761258656480104, YAS532 Magnetic Sensor
1536627869829, 0.7996633648872375, 1.9069817066192627, 11.23718547821045, 0.11331550031900406, 0.2919935882091522, 0.05192354694008827, 53.479000091552734, 19.010000228881836, 6.9029998779296875, 289.0, 0.6517922282218933, 1.8357658386230469, 1.4319086074829102, 0.14787112176418304, 0.07121586799621582, 9.805276870727539, 997.1300048828125, 0.010389961302280426, -0.0041531287133693695, 0.5774011611938477, 289.0, -0.6972123702616789, -1.0761258656480104, K330 Gyroscope sensor
1536627869838, 0.7996633648872375, 1.9069817066192627, 11.23718547821045, 0.2474004179239273, 0.3066543638706207, 0.2076941877603531, 53.479000091552734, 19.010000228881836, 6.9029998779296875, 289.0, 0.6517922282218933, 1.8357658386230469, 1.4319086074829102, 0.14787112176418304, 0.07121586799621582, 9.805276870727539, 997.1300048828125, 0.010389961302280426, -0.0041531287133693695, 0.5774011611938477, 289.0, -0.6972123702616789, -1.0761258656480104, K330 Gyroscope sensor
1536627869851, 0.7996633648872375, 1.9069817066192627, 11.23718547821045, 0.2474004179239273, 0.3066543638706207, 0.2076941877603531, 53.827999114990234, 19.010000228881836, 6.9029998779296875, 289.0, 0.6517922282218933, 1.8357658386230469, 1.4319086074829102, 0.14787112176418304, 0.07121586799621582, 9.805276870727539, 997.1300048828125, 0.010389961302280426, -0.0041531287133693695, 0.5774011611938477, 289.0, -0.6972123702616789, -1.0761258656480104, YAS532 Magnetic Sensor
1536627869852, 0.7996633648872375, 1.9069817066192627, 11.23718547821045, 0.3790418803691864, 0.2877175211906433, 0.3081815242767334, 53.827999114990234, 19.010000228881836, 6.9029998779296875, 289.0, 0.6517922282218933, 1.8357658386230469, 1.4319086074829102, 0.14787112176418304, 0.07121586799621582, 9.805276870727539, 997.1300048828125, 0.010389961302280426, -0.0041531287133693695, 0.5774011611938477, 289.0, -0.6972123702616789, -1.0761258656480104, K330 Gyroscope sensor
1536627869856, 0.7996633648872375, 1.9069817066192627, 11.23718547821045, 0.49754974246025085, 0.17379115521907806, 0.30634891986846924, 53.827999114990234, 19.010000228881836, 6.9029998779296875, 289.0, 0.6517922282218933, 1.8357658386230469, 1.4319086074829102, 0.14787112176418304, 0.07121586799621582, 9.805276870727539, 997.1300048828125, 0.010389961302280426, -0.0041531287133693695, 0.5774011611938477, 289.0, -0.6972123702616789, -1.0761258656480104, K330 Gyroscope sensor
1536627869871, 0.7996633648872375, 1.9069817066192627, 11.23718547821045, 0.49754974246025085, 0.17379115521907806, 0.30634891986846924, 54.599998474121094, 19.010000228881836, 6.9029998779296875, 289.0, 0.6517922282218933, 1.8357658386230469, 1.4319086074829102, 0.14787112176418304, 0.07121586799621582, 9.805276870727539, 997.1300048828125, 0.010389961302280426, -0.0041531287133693695, 0.5774011611938477, 289.0, -0.6972123702616789, -1.0761258656480104, YAS532 Magnetic Sensor
1536627869876, 0.7996633648872375, 1.9069817066192627, 11.23718547821045, 0.5400048494338989, -0.06841690838336945, 0.2532036304473877, 54.599998474121094, 19.010000228881836, 6.9029998779296875, 289.0, 0.6517922282218933, 1.8357658386230469, 1.4319086074829102, 0.14787112176418304, 0.07121586799621582, 9.805276870727539, 997.1300048828125, 0.010389961302280426, -0.0041531287133693695, 0.5774011611938477, 289.0, -0.6972123702616789, -1.0761258656480104, K330 Gyroscope sensor
1536627869878, 0.7996633648872375, 1.9069817066192627, 11.23718547821045, 0.47250425815582275, -0.37537670135498047, 0.2064724564552307, 54.599998474121094, 19.010000228881836, 6.9029998779296875, 289.0, 0.6517922282218933, 1.8357658386230469, 1.4319086074829102, 0.14787112176418304, 0.07121586799621582, 9.805276870727539, 997.1300048828125, 0.010389961302280426, -0.0041531287133693695, 0.5774011611938477, 289.0, -0.6972123702616789, -1.0761258656480104, K330 Gyroscope sensor
1536627869889, 0.7996633648872375, 1.9069817066192627, 11.23718547821045, 0.47250425815582275, -0.37537670135498047, 0.2064724564552307, 54.284000396728516, 19.010000228881836, 5.934999942779541, 289.0, 0.6517922282218933, 1.8357658386230469, 1.4319086074829102, 0.14787112176418304, 0.07121586799621582, 9.805276870727539, 997.1300048828125, 0.010389961302280426, -0.0041531287133693695, 0.5774011611938477, 289.0, -0.6972123702616789, -1.0761258656480104, YAS532 Magnetic Sensor
1536627869891, 0.7996633648872375, 1.9069817066192627, 11.23718547821045, 0.25534167885780334, -0.646906316280365, 0.21471913158893585, 54.284000396728516, 19.010000228881836, 5.934999942779541, 289.0, 0.6517922282218933, 1.8357658386230469, 1.4319086074829102, 0.14787112176418304, 0.07121586799621582, 9.805276870727539, 997.1300048828125, 0.010389961302280426, -0.0041531287133693695, 0.5774011611938477, 289.0, -0.6972123702616789, -1.0761258656480104, K330 Gyroscope sensor
1536627869895, 0.7996633648872375, 1.9069817066192627, 11.23718547821045, -0.06780604273080826, -0.8304712772369385, 0.27458393573760986, 54.284000396728516, 19.010000228881836, 5.934999942779541, 289.0, 0.6517922282218933, 1.8357658386230469, 1.4319086074829102, 0.14787112176418304, 0.07121586799621582, 9.805276870727539, 997.1300048828125, 0.010389961302280426, -0.0041531287133693695, 0.5774011611938477, 289.0, -0.6972123702616789, -1.0761258656480104, K330 Gyroscope sensor
1536627869910, 0.7996633648872375, 1.9069817066192627, 11.23718547821045, -0.06780604273080826, -0.8304712772369385, 0.27458393573760986, 54.284000396728516, 19.010000228881836, 5.934999942779541, 289.0, 0.6517922282218933, 1.8357658386230469, 1.4319086074829102, 0.14787112176418304, 0.07121586799621582, 9.805276870727539, 997.1300048828125, 0.010389961302280426, -0.0041531287133693695, 0.5774011611938477, 289.0, -0.6972123702616789, -1.0761258656480104, YAS532 Magnetic Sensor
1536627869914, 0.7996633648872375, 1.9069817066192627, 11.23718547821045, -0.20952677726745605, -0.8943067193031311, 0.3124575614929199, 54.284000396728516, 19.010000228881836, 5.934999942779541, 289.0, 0.6517922282218933, 1.8357658386230469, 1.4319086074829102, 0.14787112176418304, 0.07121586799621582, 9.805276870727539, 997.1300048828125, 0.010389961302280426, -0.0041531287133693695, 0.5774011611938477, 289.0, -0.6972123702616789, -1.0761258656480104, K330 Gyroscope sensor
1536627869917, 0.7996633648872375, 1.9069817066192627, 11.23718547821045, -0.32070425152778625, -0.8671231865882874, 0.37659841775894165, 54.284000396728516, 19.010000228881836, 5.934999942779541, 289.0, 0.6517922282218933, 1.8357658386230469, 1.4319086074829102, 0.14787112176418304, 0.07121586799621582, 9.805276870727539, 997.1300048828125, 0.010389961302280426, -0.0041531287133693695, 0.5774011611938477, 289.0, -0.6972123702616789, -1.0761258656480104, K330 Gyroscope sensor
1536627869930, 0.7996633648872375, 1.9069817066192627, 11.23718547821045, -0.32070425152778625, -0.8671231865882874, 0.37659841775894165, 54.284000396728516, 19.010000228881836, 5.211999893188477, 289.0, 0.6517922282218933, 1.8357658386230469, 1.4319086074829102, 0.14787112176418304, 0.07121586799621582, 9.805276870727539, 997.1300048828125, 0.010389961302280426, -0.0041531287133693695, 0.5774011611938477, 289.0, -0.6972123702616789, -1.0761258656480104, YAS532 Magnetic Sensor
1536627869933, 0.7996633648872375, 1.9069817066192627, 11.23718547821045, -0.15913039445877075, -0.7000515460968018, 0.4034765064716339, 54.284000396728516, 19.010000228881836, 5.211999893188477, 289.0, 0.6517922282218933, 1.8357658386230469, 1.4319086074829102, 0.14787112176418304, 0.07121586799621582, 9.805276870727539, 997.1300048828125, 0.010389961302280426, -0.0041531287133693695, 0.5774011611938477, 289.0, -0.6972123702616789, -1.0761258656480104, K330 Gyroscope sensor
1536627869936, 0.7996633648872375, 1.9069817066192627, 11.23718547821045, 0.17073683440685272, -0.46761733293533325, 0.3930917978286743, 54.284000396728516, 19.010000228881836, 5.211999893188477, 289.0, 0.6517922282218933, 1.8357658386230469, 1.4319086074829102, 0.14787112176418304, 0.07121586799621582, 9.805276870727539, 997.1300048828125, 0.010389961302280426, -0.0041531287133693695, 0.5774011611938477, 289.0, -0.6972123702616789, -1.0761258656480104, K330 Gyroscope sensor
1536627869949, 0.7996633648872375, 1.9069817066192627, 11.23718547821045, 0.17073683440685272, -0.46761733293533325, 0.3930917978286743, 54.284000396728516, 19.010000228881836, 4.758999824523926, 289.0, 0.6517922282218933, 1.8357658386230469, 1.4319086074829102, 0.14787112176418304, 0.07121586799621582, 9.805276870727539, 997.1300048828125, 0.010389961302280426, -0.0041531287133693695, 0.5774011611938477, 289.0, -0.6972123702616789, -1.0761258656480104, YAS532 Magnetic Sensor
1536627869951, 0.7996633648872375, 1.9069817066192627, 11.23718547821045, 0.45723262429237366, -0.27030786871910095, 0.394618958234787, 54.284000396728516, 19.010000228881836, 4.758999824523926, 289.0, 0.6517922282218933, 1.8357658386230469, 1.4319086074829102, 0.14787112176418304, 0.07121586799621582, 9.805276870727539, 997.1300048828125, 0.010389961302280426, -0.0041531287133693695, 0.5774011611938477, 289.0, -0.6972123702616789, -1.0761258656480104, K330 Gyroscope sensor
1536627869955, 0.7996633648872375, 1.9069817066192627, 11.23718547821045, 0.504574716091156, -0.2076941877603531, 0.4147774875164032, 54.284000396728516, 19.010000228881836, 4.758999824523926, 289.0, 0.6517922282218933, 1.8357658386230469, 1.4319086074829102, 0.14787112176418304, 0.07121586799621582, 9.805276870727539, 997.1300048828125, 0.010389961302280426, -0.0041531287133693695, 0.5774011611938477, 289.0, -0.6972123702616789, -1.0761258656480104, K330 Gyroscope sensor
1536627869978, 3.070563793182373, 3.909731388092041, 11.583148002624512, 0.504574716091156, -0.2076941877603531, 0.4147774875164032, 54.284000396728516, 19.010000228881836, 4.758999824523926, 289.0, 0.6517922282218933, 1.8357658386230469, 1.4319086074829102, 0.14787112176418304, 0.07121586799621582, 9.805276870727539, 997.1300048828125, 0.010389961302280426, -0.0041531287133693695, 0.5774011611938477, 289.0, -0.6972123702616789, -1.0761258656480104, K330 3-axis Accelerometer
1536627869980, 3.070563793182373, 3.909731388092041, 11.583148002624512, 0.504574716091156, -0.2076941877603531, 0.4147774875164032, 54.284000396728516, 19.010000228881836, 4.758999824523926, 289.0, 0.6517922282218933, 1.8357658386230469, 1.4319086074829102, 0.5312741994857788, 0.32198652625083923, 9.786953926086426, 997.1300048828125, 0.010389961302280426, -0.0041531287133693695, 0.5774011611938477, 289.0, -0.6972123702616789, -1.0761258656480104, Gravity Sensor
1536627869989, 3.070563793182373, 3.909731388092041, 11.583148002624512, 0.504574716091156, -0.2076941877603531, 0.4147774875164032, 54.284000396728516, 19.010000228881836, 4.758999824523926, 289.0, 2.5392894744873047, 3.587744951248169, 1.796194076538086, 0.5312741994857788, 0.32198652625083923, 9.786953926086426, 997.1300048828125, 0.010389961302280426, -0.0041531287133693695, 0.5774011611938477, 289.0, -0.6972123702616789, -1.0761258656480104, Linear Acceleration Sensor
1536627869991, 3.070563793182373, 3.909731388092041, 11.583148002624512, 0.504574716091156, -0.2076941877603531, 0.4147774875164032, 54.284000396728516, 19.010000228881836, 4.758999824523926, 289.0, 2.5392894744873047, 3.587744951248169, 1.796194076538086, 0.5312741994857788, 0.32198652625083923, 9.786953926086426, 997.1300048828125, 0.026044221594929695, -0.011799262836575508, 0.5818887948989868, 288.0, -1.6391108247320698, -2.837874871361775, Rotation Vector Sensor
1536627869993, 3.070563793182373, 3.909731388092041, 11.583148002624512, 0.504574716091156, -0.2076941877603531, 0.4147774875164032, 54.284000396728516, 19.010000228881836, 4.758999824523926, 289.0, 2.5392894744873047, 3.587744951248169, 1.796194076538086, 0.5312741994857788, 0.32198652625083923, 9.786953926086426, 997.1300048828125, 0.026044221594929695, -0.011799262836575508, 0.5818887948989868, 288.0, -1.6391108247320698, -2.837874871361775, Orientation Sensor
1536627869995, 3.070563793182373, 3.909731388092041, 11.583148002624512, 0.34208452701568604, -0.3173444867134094, 0.389426589012146, 54.284000396728516, 19.010000228881836, 4.758999824523926, 289.0, 2.5392894744873047, 3.587744951248169, 1.796194076538086, 0.5312741994857788, 0.32198652625083923, 9.786953926086426, 997.1300048828125, 0.026044221594929695, -0.011799262836575508, 0.5818887948989868, 288.0, -1.6391108247320698, -2.837874871361775, K330 Gyroscope sensor
1536627869999, 3.070563793182373, 3.909731388092041, 11.583148002624512, 0.34208452701568604, -0.3173444867134094, 0.389426589012146, 53.83100128173828, 19.010000228881836, 4.00600004196167, 289.0, 2.5392894744873047, 3.587744951248169, 1.796194076538086, 0.5312741994857788, 0.32198652625083923, 9.786953926086426, 997.1300048828125, 0.026044221594929695, -0.011799262836575508, 0.5818887948989868, 288.0, -1.6391108247320698, -2.837874871361775, YAS532 Magnetic Sensor
1536627870001, 3.070563793182373, 3.909731388092041, 11.583148002624512, 0.34208452701568604, -0.3173444867134094, 0.389426589012146, 53.83100128173828, 19.010000228881836, 4.00600004196167, 289.0, 2.5392894744873047, 3.587744951248169, 1.796194076538086, 0.5312741994857788, 0.32198652625083923, 9.786953926086426, 997.1099853515625, 0.026044221594929695, -0.011799262836575508, 0.5818887948989868, 288.0, -1.6391108247320698, -2.837874871361775, Barometer Sensor
1536627870003, 3.070563793182373, 3.909731388092041, 11.583148002624512, 0.34208452701568604, -0.3173444867134094, 0.389426589012146, 53.83100128173828, 19.010000228881836, 4.00600004196167, 347.0, 2.5392894744873047, 3.587744951248169, 1.796194076538086, 0.5312741994857788, 0.32198652625083923, 9.786953926086426, 997.1099853515625, 0.026044221594929695, -0.011799262836575508, 0.5818887948989868, 288.0, -1.6391108247320698, -2.837874871361775, CM3323 RGB Sensor
1536627870005, 3.070563793182373, 3.909731388092041, 11.583148002624512, 0.06872233748435974, -0.5103778839111328, 0.2977968156337738, 53.83100128173828, 19.010000228881836, 4.00600004196167, 347.0, 2.5392894744873047, 3.587744951248169, 1.796194076538086, 0.5312741994857788, 0.32198652625083923, 9.786953926086426, 997.1099853515625, 0.026044221594929695, -0.011799262836575508, 0.5818887948989868, 288.0, -1.6391108247320698, -2.837874871361775, K330 Gyroscope sensor
1536627870008, 3.070563793182373, 3.909731388092041, 11.583148002624512, 0.06872233748435974, -0.5103778839111328, 0.2977968156337738, 53.529998779296875, 19.010000228881836, 4.00600004196167, 347.0, 2.5392894744873047, 3.587744951248169, 1.796194076538086, 0.5312741994857788, 0.32198652625083923, 9.786953926086426, 997.1099853515625, 0.026044221594929695, -0.011799262836575508, 0.5818887948989868, 288.0, -1.6391108247320698, -2.837874871361775, YAS532 Magnetic Sensor
1536627870009, 3.070563793182373, 3.909731388092041, 11.583148002624512, -0.08827003091573715, -0.6343835592269897, 0.23335053026676178, 53.529998779296875, 19.010000228881836, 4.00600004196167, 347.0, 2.5392894744873047, 3.587744951248169, 1.796194076538086, 0.5312741994857788, 0.32198652625083923, 9.786953926086426, 997.1099853515625, 0.026044221594929695, -0.011799262836575508, 0.5818887948989868, 288.0, -1.6391108247320698, -2.837874871361775, K330 Gyroscope sensor
1536627870012, 3.070563793182373, 3.909731388092041, 11.583148002624512, -0.3878994286060333, -0.6356052756309509, 0.10873401165008545, 53.529998779296875, 19.010000228881836, 4.00600004196167, 347.0, 2.5392894744873047, 3.587744951248169, 1.796194076538086, 0.5312741994857788, 0.32198652625083923, 9.786953926086426, 997.1099853515625, 0.026044221594929695, -0.011799262836575508, 0.5818887948989868, 288.0, -1.6391108247320698, -2.837874871361775, K330 Gyroscope sensor
1536627870015, 3.070563793182373, 3.909731388092041, 11.583148002624512, -0.3878994286060333, -0.6356052756309509, 0.10873401165008545, 53.529998779296875, 19.010000228881836, 4.00600004196167, 347.0, 2.5392894744873047, 3.587744951248169, 1.796194076538086, 0.5312741994857788, 0.32198652625083923, 9.786953926086426, 997.1099853515625, 0.026044221594929695, -0.011799262836575508, 0.5818887948989868, 288.0, -1.6391108247320698, -2.837874871361775, YAS532 Magnetic Sensor
1536627870017, 3.070563793182373, 3.909731388092041, 11.583148002624512, -0.619111955165863, -0.4856378734111786, 0.01618792861700058, 53.529998779296875, 19.010000228881836, 4.00600004196167, 347.0, 2.5392894744873047, 3.587744951248169, 1.796194076538086, 0.5312741994857788, 0.32198652625083923, 9.786953926086426, 997.1099853515625, 0.026044221594929695, -0.011799262836575508, 0.5818887948989868, 288.0, -1.6391108247320698, -2.837874871361775, K330 Gyroscope sensor
1536627870019, 3.070563793182373, 3.909731388092041, 11.583148002624512, -0.7596109509468079, -0.19303341209888458, -0.052839845418930054, 53.529998779296875, 19.010000228881836, 4.00600004196167, 347.0, 2.5392894744873047, 3.587744951248169, 1.796194076538086, 0.5312741994857788, 0.32198652625083923, 9.786953926086426, 997.1099853515625, 0.026044221594929695, -0.011799262836575508, 0.5818887948989868, 288.0, -1.6391108247320698, -2.837874871361775, K330 Gyroscope sensor
1536627870027, 3.070563793182373, 3.909731388092041, 11.583148002624512, -0.7596109509468079, -0.19303341209888458, -0.052839845418930054, 53.529998779296875, 19.010000228881836, 4.00600004196167, 347.0, 2.5392894744873047, 3.587744951248169, 1.796194076538086, 0.5312741994857788, 0.32198652625083923, 9.786953926086426, 997.1099853515625, 0.026044221594929695, -0.011799262836575508, 0.5818887948989868, 288.0, -1.6391108247320698, -2.837874871361775, YAS532 Magnetic Sensor
1536627870029, 3.070563793182373, 3.909731388092041, 11.583148002624512, -0.8100073337554932, 0.0555887371301651, -0.11881329119205475, 53.529998779296875, 19.010000228881836, 4.00600004196167, 347.0, 2.5392894744873047, 3.587744951248169, 1.796194076538086, 0.5312741994857788, 0.32198652625083923, 9.786953926086426, 997.1099853515625, 0.026044221594929695, -0.011799262836575508, 0.5818887948989868, 288.0, -1.6391108247320698, -2.837874871361775, K330 Gyroscope sensor
1536627870035, 3.070563793182373, 3.909731388092041, 11.583148002624512, -0.7486153841018677, 0.14905111491680145, -0.20922134816646576, 53.529998779296875, 19.010000228881836, 4.00600004196167, 347.0, 2.5392894744873047, 3.587744951248169, 1.796194076538086, 0.5312741994857788, 0.32198652625083923, 9.786953926086426, 997.1099853515625, 0.026044221594929695, -0.011799262836575508, 0.5818887948989868, 288.0, -1.6391108247320698, -2.837874871361775, K330 Gyroscope sensor
1536627870047, 3.070563793182373, 3.909731388092041, 11.583148002624512, -0.7486153841018677, 0.14905111491680145, -0.20922134816646576, 53.915000915527344, 19.010000228881836, 4.4670000076293945, 347.0, 2.5392894744873047, 3.587744951248169, 1.796194076538086, 0.5312741994857788, 0.32198652625083923, 9.786953926086426, 997.1099853515625, 0.026044221594929695, -0.011799262836575508, 0.5818887948989868, 288.0, -1.6391108247320698, -2.837874871361775, YAS532 Magnetic Sensor
1536627870048, 3.070563793182373, 3.909731388092041, 11.583148002624512, -0.589790403842926, 0.03237585723400116, -0.308792382478714, 53.915000915527344, 19.010000228881836, 4.4670000076293945, 347.0, 2.5392894744873047, 3.587744951248169, 1.796194076538086, 0.5312741994857788, 0.32198652625083923, 9.786953926086426, 997.1099853515625, 0.026044221594929695, -0.011799262836575508, 0.5818887948989868, 288.0, -1.6391108247320698, -2.837874871361775, K330 Gyroscope sensor
1536627870056, 3.070563793182373, 3.909731388092041, 11.583148002624512, -0.4202753007411957, -0.2779437005519867, -0.3799581825733185, 53.915000915527344, 19.010000228881836, 4.4670000076293945, 347.0, 2.5392894744873047, 3.587744951248169, 1.796194076538086, 0.5312741994857788, 0.32198652625083923, 9.786953926086426, 997.1099853515625, 0.026044221594929695, -0.011799262836575508, 0.5818887948989868, 288.0, -1.6391108247320698, -2.837874871361775, K330 Gyroscope sensor
1536627870067, 3.070563793182373, 3.909731388092041, 11.583148002624512, -0.4202753007411957, -0.2779437005519867, -0.3799581825733185, 53.915000915527344, 19.010000228881836, 4.4670000076293945, 347.0, 2.5392894744873047, 3.587744951248169, 1.796194076538086, 0.5312741994857788, 0.32198652625083923, 9.786953926086426, 997.1099853515625, 0.026044221594929695, -0.011799262836575508, 0.5818887948989868, 288.0, -1.6391108247320698, -2.837874871361775, YAS532 Magnetic Sensor
1536627870068, 3.070563793182373, 3.909731388092041, 11.583148002624512, -0.38576140999794006, -0.6023131608963013, -0.39553526043891907, 53.915000915527344, 19.010000228881836, 4.4670000076293945, 347.0, 2.5392894744873047, 3.587744951248169, 1.796194076538086, 0.5312741994857788, 0.32198652625083923, 9.786953926086426, 997.1099853515625, 0.026044221594929695, -0.011799262836575508, 0.5818887948989868, 288.0, -1.6391108247320698, -2.837874871361775, K330 Gyroscope sensor
1536627870076, 3.070563793182373, 3.909731388092041, 11.583148002624512, -0.4447098970413208, -0.694553792476654, -0.3839288055896759, 53.915000915527344, 19.010000228881836, 4.4670000076293945, 347.0, 2.5392894744873047, 3.587744951248169, 1.796194076538086, 0.5312741994857788, 0.32198652625083923, 9.786953926086426, 997.1099853515625, 0.026044221594929695, -0.011799262836575508, 0.5818887948989868, 288.0, -1.6391108247320698, -2.837874871361775, K330 Gyroscope sensor
1536627870090, 3.070563793182373, 3.909731388092041, 11.583148002624512, -0.4447098970413208, -0.694553792476654, -0.3839288055896759, 53.590999603271484, 19.010000228881836, 4.4670000076293945, 347.0, 2.5392894744873047, 3.587744951248169, 1.796194076538086, 0.5312741994857788, 0.32198652625083923, 9.786953926086426, 997.1099853515625, 0.026044221594929695, -0.011799262836575508, 0.5818887948989868, 288.0, -1.6391108247320698, -2.837874871361775, YAS532 Magnetic Sensor
1536627870092, 3.070563793182373, 3.909731388092041, 11.583148002624512, -0.5650503635406494, -0.6496551632881165, -0.35582900047302246, 53.590999603271484, 19.010000228881836, 4.4670000076293945, 347.0, 2.5392894744873047, 3.587744951248169, 1.796194076538086, 0.5312741994857788, 0.32198652625083923, 9.786953926086426, 997.1099853515625, 0.026044221594929695, -0.011799262836575508, 0.5818887948989868, 288.0, -1.6391108247320698, -2.837874871361775, K330 Gyroscope sensor
1536627870096, 3.070563793182373, 3.909731388092041, 11.583148002624512, -0.6108652353286743, -0.3927863538265228, -0.34666603803634644, 53.590999603271484, 19.010000228881836, 4.4670000076293945, 347.0, 2.5392894744873047, 3.587744951248169, 1.796194076538086, 0.5312741994857788, 0.32198652625083923, 9.786953926086426, 997.1099853515625, 0.026044221594929695, -0.011799262836575508, 0.5818887948989868, 288.0, -1.6391108247320698, -2.837874871361775, K330 Gyroscope sensor
1536627870110, 3.070563793182373, 3.909731388092041, 11.583148002624512, -0.6108652353286743, -0.3927863538265228, -0.34666603803634644, 53.2760009765625, 19.010000228881836, 4.4670000076293945, 347.0, 2.5392894744873047, 3.587744951248169, 1.796194076538086, 0.5312741994857788, 0.32198652625083923, 9.786953926086426, 997.1099853515625, 0.026044221594929695, -0.011799262836575508, 0.5818887948989868, 288.0, -1.6391108247320698, -2.837874871361775, YAS532 Magnetic Sensor
1536627870113, 3.070563793182373, 3.909731388092041, 11.583148002624512, -0.5189300179481506, -0.11972958594560623, -0.3594942092895508, 53.2760009765625, 19.010000228881836, 4.4670000076293945, 347.0, 2.5392894744873047, 3.587744951248169, 1.796194076538086, 0.5312741994857788, 0.32198652625083923, 9.786953926086426, 997.1099853515625, 0.026044221594929695, -0.011799262836575508, 0.5818887948989868, 288.0, -1.6391108247320698, -2.837874871361775, K330 Gyroscope sensor
1536627870116, 3.070563793182373, 3.909731388092041, 11.583148002624512, -0.3481931984424591, 0.04886921867728233, -0.39553526043891907, 53.2760009765625, 19.010000228881836, 4.4670000076293945, 347.0, 2.5392894744873047, 3.587744951248169, 1.796194076538086, 0.5312741994857788, 0.32198652625083923, 9.786953926086426, 997.1099853515625, 0.026044221594929695, -0.011799262836575508, 0.5818887948989868, 288.0, -1.6391108247320698, -2.837874871361775, K330 Gyroscope sensor
1536627870131, 3.070563793182373, 3.909731388092041, 11.583148002624512, -0.3481931984424591, 0.04886921867728233, -0.39553526043891907, 53.2760009765625, 19.010000228881836, 4.4670000076293945, 347.0, 2.5392894744873047, 3.587744951248169, 1.796194076538086, 0.5312741994857788, 0.32198652625083923, 9.786953926086426, 997.1099853515625, 0.026044221594929695, -0.011799262836575508, 0.5818887948989868, 288.0, -1.6391108247320698, -2.837874871361775, YAS532 Magnetic Sensor
1536627870133, 3.070563793182373, 3.909731388092041, 11.583148002624512, -0.2125810980796814, 0.12431107461452484, -0.43646320700645447, 53.2760009765625, 19.010000228881836, 4.4670000076293945, 347.0, 2.5392894744873047, 3.587744951248169, 1.796194076538086, 0.5312741994857788, 0.32198652625083923, 9.786953926086426, 997.1099853515625, 0.026044221594929695, -0.011799262836575508, 0.5818887948989868, 288.0, -1.6391108247320698, -2.837874871361775, K330 Gyroscope sensor
1536627870136, 3.070563793182373, 3.909731388092041, 11.583148002624512, -0.19364428520202637, 0.17073683440685272, -0.4554000496864319, 53.2760009765625, 19.010000228881836, 4.4670000076293945, 347.0, 2.5392894744873047, 3.587744951248169, 1.796194076538086, 0.5312741994857788, 0.32198652625083923, 9.786953926086426, 997.1099853515625, 0.026044221594929695, -0.011799262836575508, 0.5818887948989868, 288.0, -1.6391108247320698, -2.837874871361775, K330 Gyroscope sensor
1536627870155, 0.05267243832349777, 0.3884592354297638, 4.243722438812256, -0.19364428520202637, 0.17073683440685272, -0.4554000496864319, 53.2760009765625, 19.010000228881836, 4.4670000076293945, 347.0, 2.5392894744873047, 3.587744951248169, 1.796194076538086, 0.5312741994857788, 0.32198652625083923, 9.786953926086426, 997.1099853515625, 0.026044221594929695, -0.011799262836575508, 0.5818887948989868, 288.0, -1.6391108247320698, -2.837874871361775, K330 3-axis Accelerometer
1536627870157, 0.05267243832349777, 0.3884592354297638, 4.243722438812256, -0.19364428520202637, 0.17073683440685272, -0.4554000496864319, 53.2760009765625, 19.010000228881836, 4.4670000076293945, 347.0, 2.5392894744873047, 3.587744951248169, 1.796194076538086, 0.9222782850265503, -0.5030903816223145, 9.750215530395508, 997.1099853515625, 0.026044221594929695, -0.011799262836575508, 0.5818887948989868, 288.0, -1.6391108247320698, -2.837874871361775, Gravity Sensor
1536627870159, 0.05267243832349777, 0.3884592354297638, 4.243722438812256, -0.19364428520202637, 0.17073683440685272, -0.4554000496864319, 53.2760009765625, 19.010000228881836, 4.4670000076293945, 347.0, -0.8696058392524719, 0.8915495872497559, -5.506493091583252, 0.9222782850265503, -0.5030903816223145, 9.750215530395508, 997.1099853515625, 0.026044221594929695, -0.011799262836575508, 0.5818887948989868, 288.0, -1.6391108247320698, -2.837874871361775, Linear Acceleration Sensor
1536627870161, 0.05267243832349777, 0.3884592354297638, 4.243722438812256, -0.19364428520202637, 0.17073683440685272, -0.4554000496864319, 53.2760009765625, 19.010000228881836, 4.4670000076293945, 347.0, -0.8696058392524719, 0.8915495872497559, -5.506493091583252, 0.9222782850265503, -0.5030903816223145, 9.750215530395508, 997.1099853515625, 0.008630476891994476, -0.053907424211502075, 0.5688059329986572, 290.0, 2.7030936812528554, -5.647430497764208, Rotation Vector Sensor
1536627870163, 0.05267243832349777, 0.3884592354297638, 4.243722438812256, -0.19364428520202637, 0.17073683440685272, -0.4554000496864319, 53.2760009765625, 19.010000228881836, 4.4670000076293945, 347.0, -0.8696058392524719, 0.8915495872497559, -5.506493091583252, 0.9222782850265503, -0.5030903816223145, 9.750215530395508, 997.1099853515625, 0.008630476891994476, -0.053907424211502075, 0.5688059329986572, 290.0, 2.7030936812528554, -5.647430497764208, Orientation Sensor
