timestamp, acc_x, acc_y, acc_z, gyro_x, gyro_y, gyro_z, mag_x, mag_y, mag_z, light, la_x, la_y, la_z, gravity_x, gravity_y, gravity_z, pressure, rot_x, rot_y, rot_z, azimuth, pitch, roll, sensor_change
1536635707495, 0.0, 0.0, 0.0, 0.0, 0.0, 0.0, 0.0, 0.0, 0.0, 116.0, 0.0, 0.0, 0.0, 0.0, 0.0, 0.0, 0.0, 0.0, 0.0, 0.0, 0.0, 0.0, 0.0, CM3323 RGB Sensor
1536635707535, 0.0, 0.0, 0.0, 0.0, 0.0, 0.0, 44.685001373291016, 13.079000473022461, 28.812999725341797, 116.0, 0.0, 0.0, 0.0, 0.0, 0.0, 0.0, 0.0, 0.0, 0.0, 0.0, 0.0, 0.0, 0.0, YAS532 Magnetic Sensor
1536635707538, 0.0, 0.0, 0.0, 0.24434609711170197, -0.05314527451992035, -0.052839845418930054, 44.685001373291016, 13.079000473022461, 28.812999725341797, 116.0, 0.0, 0.0, 0.0, 0.0, 0.0, 0.0, 0.0, 0.0, 0.0, 0.0, 0.0, 0.0, 0.0, K330 Gyroscope sensor
1536635707544, 0.0, 0.0, 0.0, 0.004581489134579897, -0.05314527451992035, 0.36163222789764404, 44.685001373291016, 13.079000473022461, 28.812999725341797, 116.0, 0.0, 0.0, 0.0, 0.0, 0.0, 0.0, 0.0, 0.0, 0.0, 0.0, 0.0, 0.0, 0.0, K330 Gyroscope sensor
1536635707545, 0.0, 0.0, 0.0, 0.004581489134579897, -0.05314527451992035, 0.36163222789764404, 45.069000244140625, 13.079000473022461, 30.125, 116.0, 0.0, 0.0, 0.0, 0.0, 0.0, 0.0, 0.0, 0.0, 0.0, 0.0, 0.0, 0.0, 0.0, YAS532 Magnetic Sensor
1536635707546, 0.0, 0.0, 0.0, -0.015882495790719986, 0.07330382615327835, 0.39217549562454224, 45.069000244140625, 13.079000473022461, 30.125, 116.0, 0.0, 0.0, 0.0, 0.0, 0.0, 0.0, 0.0, 0.0, 0.0, 0.0, 0.0, 0.0, 0.0, K330 Gyroscope sensor
1536635707547, 0.0, 0.0, 0.0, -0.01191187184303999, 0.07757988572120667, 0.3885102868080139, 45.069000244140625, 13.079000473022461, 30.125, 116.0, 0.0, 0.0, 0.0, 0.0, 0.0, 0.0, 0.0, 0.0, 0.0, 0.0, 0.0, 0.0, 0.0, K330 Gyroscope sensor
1536635707548, 0.0, 0.0, 0.0, -0.01191187184303999, 0.07757988572120667, 0.3885102868080139, 45.069000244140625, 13.079000473022461, 30.632999420166016, 116.0, 0.0, 0.0, 0.0, 0.0, 0.0, 0.0, 0.0, 0.0, 0.0, 0.0, 0.0, 0.0, 0.0, YAS532 Magnetic Sensor
1536635707549, 0.0, 0.0, 0.0, -0.01618792861700058, 0.07269296050071716, 0.3888157308101654, 45.069000244140625, 13.079000473022461, 30.632999420166016, 116.0, 0.0, 0.0, 0.0, 0.0, 0.0, 0.0, 0.0, 0.0, 0.0, 0.0, 0.0, 0.0, 0.0, K330 Gyroscope sensor
1536635707551, 0.0, 0.0, 0.0, -0.035124752670526505, 0.07422012835741043, 0.3995058834552765, 45.069000244140625, 13.079000473022461, 30.632999420166016, 116.0, 0.0, 0.0, 0.0, 0.0, 0.0, 0.0, 0.0, 0.0, 0.0, 0.0, 0.0, 0.0, 0.0, K330 Gyroscope sensor
1536635707569, 0.0, 0.0, 0.0, -0.035124752670526505, 0.07422012835741043, 0.3995058834552765, 45.069000244140625, 13.607000350952148, 30.632999420166016, 116.0, 0.0, 0.0, 0.0, 0.0, 0.0, 0.0, 0.0, 0.0, 0.0, 0.0, 0.0, 0.0, 0.0, YAS532 Magnetic Sensor
1536635707570, 0.0, 0.0, 0.0, -0.03634648025035858, 0.07238753139972687, 0.408974289894104, 45.069000244140625, 13.607000350952148, 30.632999420166016, 116.0, 0.0, 0.0, 0.0, 0.0, 0.0, 0.0, 0.0, 0.0, 0.0, 0.0, 0.0, 0.0, 0.0, K330 Gyroscope sensor
1536635707578, 0.0, 0.0, 0.0, -0.03176499158143997, 0.06230825558304787, 0.41233405470848083, 45.069000244140625, 13.607000350952148, 30.632999420166016, 116.0, 0.0, 0.0, 0.0, 0.0, 0.0, 0.0, 0.0, 0.0, 0.0, 0.0, 0.0, 0.0, 0.0, K330 Gyroscope sensor
1536635707583, 0.0, 0.0, 0.0, -0.03176499158143997, 0.06230825558304787, 0.41233405470848083, 45.069000244140625, 13.607000350952148, 30.10099983215332, 116.0, 0.0, 0.0, 0.0, 0.0, 0.0, 0.0, 0.0, 0.0, 0.0, 0.0, 0.0, 0.0, 0.0, YAS532 Magnetic Sensor
1536635707583, 0.0, 0.0, 0.0, -0.024434609338641167, 0.05711590126156807, 0.41661009192466736, 45.069000244140625, 13.607000350952148, 30.10099983215332, 116.0, 0.0, 0.0, 0.0, 0.0, 0.0, 0.0, 0.0, 0.0, 0.0, 0.0, 0.0, 0.0, 0.0, K330 Gyroscope sensor
1536635707591, 0.0, 0.0, 0.0, -0.021074850112199783, 0.0503963828086853, 0.4138612151145935, 45.069000244140625, 13.607000350952148, 30.10099983215332, 116.0, 0.0, 0.0, 0.0, 0.0, 0.0, 0.0, 0.0, 0.0, 0.0, 0.0, 0.0, 0.0, 0.0, K330 Gyroscope sensor
1536635707608, 0.3824737071990967, 0.9229647517204285, 9.86231517791748, -0.021074850112199783, 0.0503963828086853, 0.4138612151145935, 45.069000244140625, 13.607000350952148, 30.10099983215332, 116.0, 0.0, 0.0, 0.0, 0.0, 0.0, 0.0, 0.0, 0.0, 0.0, 0.0, 0.0, 0.0, 0.0, K330 3-axis Accelerometer
1536635707609, 0.3824737071990967, 0.9229647517204285, 9.86231517791748, -0.021074850112199783, 0.0503963828086853, 0.4138612151145935, 45.069000244140625, 13.607000350952148, 30.10099983215332, 116.0, 0.0, 0.0, 0.0, 0.37838149070739746, 0.913073718547821, 9.756715774536133, 0.0, 0.0, 0.0, 0.0, 0.0, 0.0, 0.0, Gravity Sensor
1536635707610, 0.3824737071990967, 0.9229647517204285, 9.86231517791748, -0.021074850112199783, 0.0503963828086853, 0.4138612151145935, 45.069000244140625, 13.607000350952148, 30.10099983215332, 116.0, 0.004092216491699219, 0.009891033172607422, 0.10559940338134766, 0.37838149070739746, 0.913073718547821, 9.756715774536133, 0.0, 0.0, 0.0, 0.0, 0.0, 0.0, 0.0, Linear Acceleration Sensor
1536635707615, 0.3824737071990967, 0.9229647517204285, 9.86231517791748, -0.021074850112199783, 0.0503963828086853, 0.4138612151145935, 45.069000244140625, 13.607000350952148, 30.10099983215332, 116.0, 0.004092216491699219, 0.009891033172607422, 0.10559940338134766, 0.37838149070739746, 0.913073718547821, 9.756715774536133, 0.0, 0.048549313098192215, 0.013743621297180653, 0.6192044615745544, 283.0, -5.342398091412846, -2.2209420900051926, Rotation Vector Sensor
1536635707619, 0.3824737071990967, 0.9229647517204285, 9.86231517791748, -0.021074850112199783, 0.0503963828086853, 0.4138612151145935, 45.069000244140625, 13.607000350952148, 30.10099983215332, 116.0, 0.004092216491699219, 0.009891033172607422, 0.10559940338134766, 0.37838149070739746, 0.913073718547821, 9.756715774536133, 0.0, 0.048549313098192215, 0.013743621297180653, 0.6192044615745544, 283.0, -5.342398091412846, -2.2209420900051926, Orientation Sensor
1536635707626, 0.3824737071990967, 0.9229647517204285, 9.86231517791748, -0.021074850112199783, 0.0503963828086853, 0.4138612151145935, 45.49100112915039, 13.607000350952148, 29.618000030517578, 116.0, 0.004092216491699219, 0.009891033172607422, 0.10559940338134766, 0.37838149070739746, 0.913073718547821, 9.756715774536133, 0.0, 0.048549313098192215, 0.013743621297180653, 0.6192044615745544, 283.0, -5.342398091412846, -2.2209420900051926, YAS532 Magnetic Sensor
1536635707630, 0.3824737071990967, 0.9229647517204285, 9.86231517791748, -0.016798794269561768, 0.04245513305068016, 0.41691553592681885, 45.49100112915039, 13.607000350952148, 29.618000030517578, 116.0, 0.004092216491699219, 0.009891033172607422, 0.10559940338134766, 0.37838149070739746, 0.913073718547821, 9.756715774536133, 0.0, 0.048549313098192215, 0.013743621297180653, 0.6192044615745544, 283.0, -5.342398091412846, -2.2209420900051926, K330 Gyroscope sensor
1536635707633, 0.3824737071990967, 0.9229647517204285, 9.86231517791748, -0.016798794269561768, 0.04245513305068016, 0.41691553592681885, 45.49100112915039, 13.607000350952148, 29.618000030517578, 119.0, 0.004092216491699219, 0.009891033172607422, 0.10559940338134766, 0.37838149070739746, 0.913073718547821, 9.756715774536133, 0.0, 0.048549313098192215, 0.013743621297180653, 0.6192044615745544, 283.0, -5.342398091412846, -2.2209420900051926, CM3323 RGB Sensor
1536635707641, 0.3824737071990967, 0.9229647517204285, 9.86231517791748, -0.01160643994808197, 0.021991148591041565, 0.4242459237575531, 45.49100112915039, 13.607000350952148, 29.618000030517578, 119.0, 0.004092216491699219, 0.009891033172607422, 0.10559940338134766, 0.37838149070739746, 0.913073718547821, 9.756715774536133, 0.0, 0.048549313098192215, 0.013743621297180653, 0.6192044615745544, 283.0, -5.342398091412846, -2.2209420900051926, K330 Gyroscope sensor
1536635707644, 0.3824737071990967, 0.9229647517204285, 9.86231517791748, -0.01160643994808197, 0.021991148591041565, 0.4242459237575531, 45.111000061035156, 13.92300033569336, 29.618000030517578, 119.0, 0.004092216491699219, 0.009891033172607422, 0.10559940338134766, 0.37838149070739746, 0.913073718547821, 9.756715774536133, 0.0, 0.048549313098192215, 0.013743621297180653, 0.6192044615745544, 283.0, -5.342398091412846, -2.2209420900051926, YAS532 Magnetic Sensor
1536635707646, 0.3824737071990967, 0.9229647517204285, 9.86231517791748, -3.054326225537807E-4, -0.010079276748001575, 0.4282165467739105, 45.111000061035156, 13.92300033569336, 29.618000030517578, 119.0, 0.004092216491699219, 0.009891033172607422, 0.10559940338134766, 0.37838149070739746, 0.913073718547821, 9.756715774536133, 0.0, 0.048549313098192215, 0.013743621297180653, 0.6192044615745544, 283.0, -5.342398091412846, -2.2209420900051926, K330 Gyroscope sensor
1536635707648, 0.3824737071990967, 0.9229647517204285, 9.86231517791748, 0.015882495790719986, -0.051312681287527084, 0.42760565876960754, 45.111000061035156, 13.92300033569336, 29.618000030517578, 119.0, 0.004092216491699219, 0.009891033172607422, 0.10559940338134766, 0.37838149070739746, 0.913073718547821, 9.756715774536133, 0.0, 0.048549313098192215, 0.013743621297180653, 0.6192044615745544, 283.0, -5.342398091412846, -2.2209420900051926, K330 Gyroscope sensor
1536635707650, 0.3824737071990967, 0.9229647517204285, 9.86231517791748, 0.015882495790719986, -0.051312681287527084, 0.42760565876960754, 45.4109992980957, 13.57699966430664, 29.618000030517578, 119.0, 0.004092216491699219, 0.009891033172607422, 0.10559940338134766, 0.37838149070739746, 0.913073718547821, 9.756715774536133, 0.0, 0.048549313098192215, 0.013743621297180653, 0.6192044615745544, 283.0, -5.342398091412846, -2.2209420900051926, YAS532 Magnetic Sensor
1536635707652, 0.3824737071990967, 0.9229647517204285, 9.86231517791748, 0.03481931984424591, -0.10354165732860565, 0.37751471996307373, 45.4109992980957, 13.57699966430664, 29.618000030517578, 119.0, 0.004092216491699219, 0.009891033172607422, 0.10559940338134766, 0.37838149070739746, 0.913073718547821, 9.756715774536133, 0.0, 0.048549313098192215, 0.013743621297180653, 0.6192044615745544, 283.0, -5.342398091412846, -2.2209420900051926, K330 Gyroscope sensor
1536635707658, 0.3824737071990967, 0.9229647517204285, 9.86231517791748, 0.04306599870324135, -0.13408492505550385, 0.33078351616859436, 45.4109992980957, 13.57699966430664, 29.618000030517578, 119.0, 0.004092216491699219, 0.009891033172607422, 0.10559940338134766, 0.37838149070739746, 0.913073718547821, 9.756715774536133, 0.0, 0.048549313098192215, 0.013743621297180653, 0.6192044615745544, 283.0, -5.342398091412846, -2.2209420900051926, K330 Gyroscope sensor
1536635707667, 0.3824737071990967, 0.9229647517204285, 9.86231517791748, 0.04306599870324135, -0.13408492505550385, 0.33078351616859436, 45.4109992980957, 13.57699966430664, 29.305999755859375, 119.0, 0.004092216491699219, 0.009891033172607422, 0.10559940338134766, 0.37838149070739746, 0.913073718547821, 9.756715774536133, 0.0, 0.048549313098192215, 0.013743621297180653, 0.6192044615745544, 283.0, -5.342398091412846, -2.2209420900051926, YAS532 Magnetic Sensor
1536635707668, 0.3824737071990967, 0.9229647517204285, 9.86231517791748, 0.03878994286060333, -0.13897185027599335, 0.18448130786418915, 45.4109992980957, 13.57699966430664, 29.305999755859375, 119.0, 0.004092216491699219, 0.009891033172607422, 0.10559940338134766, 0.37838149070739746, 0.913073718547821, 9.756715774536133, 0.0, 0.048549313098192215, 0.013743621297180653, 0.6192044615745544, 283.0, -5.342398091412846, -2.2209420900051926, K330 Gyroscope sensor
1536635707674, 0.3824737071990967, 0.9229647517204285, 9.86231517791748, 0.01038470957428217, -0.11453723162412643, 0.007941247895359993, 45.4109992980957, 13.57699966430664, 29.305999755859375, 119.0, 0.004092216491699219, 0.009891033172607422, 0.10559940338134766, 0.37838149070739746, 0.913073718547821, 9.756715774536133, 0.0, 0.048549313098192215, 0.013743621297180653, 0.6192044615745544, 283.0, -5.342398091412846, -2.2209420900051926, K330 Gyroscope sensor
1536635707685, 0.3824737071990967, 0.9229647517204285, 9.86231517791748, 0.01038470957428217, -0.11453723162412643, 0.007941247895359993, 46.05500030517578, 13.57699966430664, 30.45599937438965, 119.0, 0.004092216491699219, 0.009891033172607422, 0.10559940338134766, 0.37838149070739746, 0.913073718547821, 9.756715774536133, 0.0, 0.048549313098192215, 0.013743621297180653, 0.6192044615745544, 283.0, -5.342398091412846, -2.2209420900051926, YAS532 Magnetic Sensor
1536635707686, 0.3824737071990967, 0.9229647517204285, 9.86231517791748, 0.003054326167330146, -0.044287730008363724, -0.05742133408784866, 46.05500030517578, 13.57699966430664, 30.45599937438965, 119.0, 0.004092216491699219, 0.009891033172607422, 0.10559940338134766, 0.37838149070739746, 0.913073718547821, 9.756715774536133, 0.0, 0.048549313098192215, 0.013743621297180653, 0.6192044615745544, 283.0, -5.342398091412846, -2.2209420900051926, K330 Gyroscope sensor
1536635707694, 0.3824737071990967, 0.9229647517204285, 9.86231517791748, 0.008857546374201775, -0.01160643994808197, -0.06414084881544113, 46.05500030517578, 13.57699966430664, 30.45599937438965, 119.0, 0.004092216491699219, 0.009891033172607422, 0.10559940338134766, 0.37838149070739746, 0.913073718547821, 9.756715774536133, 0.0, 0.048549313098192215, 0.013743621297180653, 0.6192044615745544, 283.0, -5.342398091412846, -2.2209420900051926, K330 Gyroscope sensor
1536635707706, 0.3824737071990967, 0.9229647517204285, 9.86231517791748, 0.008857546374201775, -0.01160643994808197, -0.06414084881544113, 46.05500030517578, 13.57699966430664, 30.45599937438965, 119.0, 0.004092216491699219, 0.009891033172607422, 0.10559940338134766, 0.37838149070739746, 0.913073718547821, 9.756715774536133, 0.0, 0.048549313098192215, 0.013743621297180653, 0.6192044615745544, 283.0, -5.342398091412846, -2.2209420900051926, YAS532 Magnetic Sensor
1536635707707, 0.3824737071990967, 0.9229647517204285, 9.86231517791748, 0.016493361443281174, -0.004886921960860491, -0.06627888232469559, 46.05500030517578, 13.57699966430664, 30.45599937438965, 119.0, 0.004092216491699219, 0.009891033172607422, 0.10559940338134766, 0.37838149070739746, 0.913073718547821, 9.756715774536133, 0.0, 0.048549313098192215, 0.013743621297180653, 0.6192044615745544, 283.0, -5.342398091412846, -2.2209420900051926, K330 Gyroscope sensor
1536635707715, 0.3824737071990967, 0.9229647517204285, 9.86231517791748, 0.016493361443281174, -0.00427605677396059, -0.06505715101957321, 46.05500030517578, 13.57699966430664, 30.45599937438965, 119.0, 0.004092216491699219, 0.009891033172607422, 0.10559940338134766, 0.37838149070739746, 0.913073718547821, 9.756715774536133, 0.0, 0.048549313098192215, 0.013743621297180653, 0.6192044615745544, 283.0, -5.342398091412846, -2.2209420900051926, K330 Gyroscope sensor
1536635707725, 0.3824737071990967, 0.9229647517204285, 9.86231517791748, 0.016493361443281174, -0.00427605677396059, -0.06505715101957321, 45.65999984741211, 13.57699966430664, 30.020000457763672, 119.0, 0.004092216491699219, 0.009891033172607422, 0.10559940338134766, 0.37838149070739746, 0.913073718547821, 9.756715774536133, 0.0, 0.048549313098192215, 0.013743621297180653, 0.6192044615745544, 283.0, -5.342398091412846, -2.2209420900051926, YAS532 Magnetic Sensor
1536635707726, 0.3824737071990967, 0.9229647517204285, 9.86231517791748, 0.011301007121801376, -0.012522737495601177, -0.06261368840932846, 45.65999984741211, 13.57699966430664, 30.020000457763672, 119.0, 0.004092216491699219, 0.009891033172607422, 0.10559940338134766, 0.37838149070739746, 0.913073718547821, 9.756715774536133, 0.0, 0.048549313098192215, 0.013743621297180653, 0.6192044615745544, 283.0, -5.342398091412846, -2.2209420900051926, K330 Gyroscope sensor
1536635707734, 0.3824737071990967, 0.9229647517204285, 9.86231517791748, 0.007024950347840786, -0.014049900695681572, -0.05925392732024193, 45.65999984741211, 13.57699966430664, 30.020000457763672, 119.0, 0.004092216491699219, 0.009891033172607422, 0.10559940338134766, 0.37838149070739746, 0.913073718547821, 9.756715774536133, 0.0, 0.048549313098192215, 0.013743621297180653, 0.6192044615745544, 283.0, -5.342398091412846, -2.2209420900051926, K330 Gyroscope sensor
1536635707745, 0.3824737071990967, 0.9229647517204285, 9.86231517791748, 0.007024950347840786, -0.014049900695681572, -0.05925392732024193, 45.22200012207031, 13.57699966430664, 30.020000457763672, 119.0, 0.004092216491699219, 0.009891033172607422, 0.10559940338134766, 0.37838149070739746, 0.913073718547821, 9.756715774536133, 0.0, 0.048549313098192215, 0.013743621297180653, 0.6192044615745544, 283.0, -5.342398091412846, -2.2209420900051926, YAS532 Magnetic Sensor
1536635707746, 0.3824737071990967, 0.9229647517204285, 9.86231517791748, -0.013133603148162365, -0.01466076634824276, -0.05467243865132332, 45.22200012207031, 13.57699966430664, 30.020000457763672, 119.0, 0.004092216491699219, 0.009891033172607422, 0.10559940338134766, 0.37838149070739746, 0.913073718547821, 9.756715774536133, 0.0, 0.048549313098192215, 0.013743621297180653, 0.6192044615745544, 283.0, -5.342398091412846, -2.2209420900051926, K330 Gyroscope sensor
1536635707757, 0.3824737071990967, 0.9229647517204285, 9.86231517791748, -0.036041051149368286, -0.014966198243200779, -0.05772676691412926, 45.22200012207031, 13.57699966430664, 30.020000457763672, 119.0, 0.004092216491699219, 0.009891033172607422, 0.10559940338134766, 0.37838149070739746, 0.913073718547821, 9.756715774536133, 0.0, 0.048549313098192215, 0.013743621297180653, 0.6192044615745544, 283.0, -5.342398091412846, -2.2209420900051926, K330 Gyroscope sensor
1536635707764, 0.3824737071990967, 0.9229647517204285, 9.86231517791748, -0.036041051149368286, -0.014966198243200779, -0.05772676691412926, 45.957000732421875, 13.57699966430664, 30.020000457763672, 119.0, 0.004092216491699219, 0.009891033172607422, 0.10559940338134766, 0.37838149070739746, 0.913073718547821, 9.756715774536133, 0.0, 0.048549313098192215, 0.013743621297180653, 0.6192044615745544, 283.0, -5.342398091412846, -2.2209420900051926, YAS532 Magnetic Sensor
1536635707766, 0.3824737071990967, 0.9229647517204285, 9.86231517791748, -0.052228979766368866, -0.004886921960860491, -0.05803219974040985, 45.957000732421875, 13.57699966430664, 30.020000457763672, 119.0, 0.004092216491699219, 0.009891033172607422, 0.10559940338134766, 0.37838149070739746, 0.913073718547821, 9.756715774536133, 0.0, 0.048549313098192215, 0.013743621297180653, 0.6192044615745544, 283.0, -5.342398091412846, -2.2209420900051926, K330 Gyroscope sensor
1536635707775, 0.3824737071990967, 0.9229647517204285, 9.86231517791748, -0.0503963828086853, 0.004886921960860491, -0.04306599870324135, 45.957000732421875, 13.57699966430664, 30.020000457763672, 119.0, 0.004092216491699219, 0.009891033172607422, 0.10559940338134766, 0.37838149070739746, 0.913073718547821, 9.756715774536133, 0.0, 0.048549313098192215, 0.013743621297180653, 0.6192044615745544, 283.0, -5.342398091412846, -2.2209420900051926, K330 Gyroscope sensor
1536635707793, 0.05267243832349777, 0.7236474752426147, 10.1382474899292, -0.0503963828086853, 0.004886921960860491, -0.04306599870324135, 45.957000732421875, 13.57699966430664, 30.020000457763672, 119.0, 0.004092216491699219, 0.009891033172607422, 0.10559940338134766, 0.37838149070739746, 0.913073718547821, 9.756715774536133, 0.0, 0.048549313098192215, 0.013743621297180653, 0.6192044615745544, 283.0, -5.342398091412846, -2.2209420900051926, K330 3-axis Accelerometer
1536635707795, 0.05267243832349777, 0.7236474752426147, 10.1382474899292, -0.0503963828086853, 0.004886921960860491, -0.04306599870324135, 45.957000732421875, 13.57699966430664, 30.020000457763672, 119.0, 0.004092216491699219, 0.009891033172607422, 0.10559940338134766, 0.20398283004760742, 0.7987917065620422, 9.771934509277344, 0.0, 0.048549313098192215, 0.013743621297180653, 0.6192044615745544, 283.0, -5.342398091412846, -2.2209420900051926, Gravity Sensor
1536635707796, 0.05267243832349777, 0.7236474752426147, 10.1382474899292, -0.0503963828086853, 0.004886921960860491, -0.04306599870324135, 45.957000732421875, 13.57699966430664, 30.020000457763672, 119.0, -0.15131038427352905, -0.07514423131942749, 0.36631298065185547, 0.20398283004760742, 0.7987917065620422, 9.771934509277344, 0.0, 0.048549313098192215, 0.013743621297180653, 0.6192044615745544, 283.0, -5.342398091412846, -2.2209420900051926, Linear Acceleration Sensor
1536635707797, 0.05267243832349777, 0.7236474752426147, 10.1382474899292, -0.0503963828086853, 0.004886921960860491, -0.04306599870324135, 45.957000732421875, 13.57699966430664, 30.020000457763672, 119.0, -0.15131038427352905, -0.07514423131942749, 0.36631298065185547, 0.20398283004760742, 0.7987917065620422, 9.771934509277344, 0.0, 0.03849900886416435, 0.016965137794613838, 0.6165715456008911, 283.0, -4.672163154103719, -1.1957941950012188, Rotation Vector Sensor
1536635707798, 0.05267243832349777, 0.7236474752426147, 10.1382474899292, -0.0503963828086853, 0.004886921960860491, -0.04306599870324135, 45.957000732421875, 13.57699966430664, 30.020000457763672, 119.0, -0.15131038427352905, -0.07514423131942749, 0.36631298065185547, 0.20398283004760742, 0.7987917065620422, 9.771934509277344, 0.0, 0.03849900886416435, 0.016965137794613838, 0.6165715456008911, 283.0, -4.672163154103719, -1.1957941950012188, Orientation Sensor
1536635707800, 0.05267243832349777, 0.7236474752426147, 10.1382474899292, -0.033597588539123535, 0.005803219974040985, -0.016493361443281174, 45.957000732421875, 13.57699966430664, 30.020000457763672, 119.0, -0.15131038427352905, -0.07514423131942749, 0.36631298065185547, 0.20398283004760742, 0.7987917065620422, 9.771934509277344, 0.0, 0.03849900886416435, 0.016965137794613838, 0.6165715456008911, 283.0, -4.672163154103719, -1.1957941950012188, K330 Gyroscope sensor
1536635707801, 0.05267243832349777, 0.7236474752426147, 10.1382474899292, -0.033597588539123535, 0.005803219974040985, -0.016493361443281174, 45.957000732421875, 13.57699966430664, 30.020000457763672, 119.0, -0.15131038427352905, -0.07514423131942749, 0.36631298065185547, 0.20398283004760742, 0.7987917065620422, 9.771934509277344, 0.0, 0.03849900886416435, 0.016965137794613838, 0.6165715456008911, 283.0, -4.672163154103719, -1.1957941950012188, YAS532 Magnetic Sensor
1536635707802, 0.05267243832349777, 0.7236474752426147, 10.1382474899292, -0.033597588539123535, 0.005803219974040985, -0.016493361443281174, 45.957000732421875, 13.57699966430664, 30.020000457763672, 118.0, -0.15131038427352905, -0.07514423131942749, 0.36631298065185547, 0.20398283004760742, 0.7987917065620422, 9.771934509277344, 0.0, 0.03849900886416435, 0.016965137794613838, 0.6165715456008911, 283.0, -4.672163154103719, -1.1957941950012188, CM3323 RGB Sensor
1536635707809, 0.05267243832349777, 0.7236474752426147, 10.1382474899292, -0.015577063895761967, -0.001832595793530345, 0.004886921960860491, 45.957000732421875, 13.57699966430664, 30.020000457763672, 118.0, -0.15131038427352905, -0.07514423131942749, 0.36631298065185547, 0.20398283004760742, 0.7987917065620422, 9.771934509277344, 0.0, 0.03849900886416435, 0.016965137794613838, 0.6165715456008911, 283.0, -4.672163154103719, -1.1957941950012188, K330 Gyroscope sensor
1536635707812, 0.05267243832349777, 0.7236474752426147, 10.1382474899292, -0.015577063895761967, -0.001832595793530345, 0.004886921960860491, 45.957000732421875, 13.57699966430664, 30.020000457763672, 118.0, -0.15131038427352905, -0.07514423131942749, 0.36631298065185547, 0.20398283004760742, 0.7987917065620422, 9.771934509277344, 0.0, 0.03849900886416435, 0.016965137794613838, 0.6165715456008911, 283.0, -4.672163154103719, -1.1957941950012188, YAS532 Magnetic Sensor
1536635707813, 0.05267243832349777, 0.7236474752426147, 10.1382474899292, 0.0, -0.013439035043120384, 0.02015855349600315, 45.957000732421875, 13.57699966430664, 30.020000457763672, 118.0, -0.15131038427352905, -0.07514423131942749, 0.36631298065185547, 0.20398283004760742, 0.7987917065620422, 9.771934509277344, 0.0, 0.03849900886416435, 0.016965137794613838, 0.6165715456008911, 283.0, -4.672163154103719, -1.1957941950012188, K330 Gyroscope sensor
1536635707814, 0.05267243832349777, 0.7236474752426147, 10.1382474899292, 0.00366519158706069, -0.013439035043120384, 0.02626720629632473, 45.957000732421875, 13.57699966430664, 30.020000457763672, 118.0, -0.15131038427352905, -0.07514423131942749, 0.36631298065185547, 0.20398283004760742, 0.7987917065620422, 9.771934509277344, 0.0, 0.03849900886416435, 0.016965137794613838, 0.6165715456008911, 283.0, -4.672163154103719, -1.1957941950012188, K330 Gyroscope sensor
1536635707826, 0.05267243832349777, 0.7236474752426147, 10.1382474899292, 0.00366519158706069, -0.013439035043120384, 0.02626720629632473, 45.957000732421875, 13.963000297546387, 30.32200050354004, 118.0, -0.15131038427352905, -0.07514423131942749, 0.36631298065185547, 0.20398283004760742, 0.7987917065620422, 9.771934509277344, 0.0, 0.03849900886416435, 0.016965137794613838, 0.6165715456008911, 283.0, -4.672163154103719, -1.1957941950012188, YAS532 Magnetic Sensor
1536635707827, 0.05267243832349777, 0.7236474752426147, 10.1382474899292, 0.0039706239476799965, -0.017409659922122955, 0.03420845419168472, 45.957000732421875, 13.963000297546387, 30.32200050354004, 118.0, -0.15131038427352905, -0.07514423131942749, 0.36631298065185547, 0.20398283004760742, 0.7987917065620422, 9.771934509277344, 0.0, 0.03849900886416435, 0.016965137794613838, 0.6165715456008911, 283.0, -4.672163154103719, -1.1957941950012188, K330 Gyroscope sensor
1536635707833, 0.05267243832349777, 0.7236474752426147, 10.1382474899292, 0.005192354787141085, -0.01618792861700058, 0.03298672288656235, 45.957000732421875, 13.963000297546387, 30.32200050354004, 118.0, -0.15131038427352905, -0.07514423131942749, 0.36631298065185547, 0.20398283004760742, 0.7987917065620422, 9.771934509277344, 0.0, 0.03849900886416435, 0.016965137794613838, 0.6165715456008911, 283.0, -4.672163154103719, -1.1957941950012188, K330 Gyroscope sensor
1536635707847, 0.05267243832349777, 0.7236474752426147, 10.1382474899292, 0.005192354787141085, -0.01618792861700058, 0.03298672288656235, 46.33300018310547, 13.609999656677246, 30.32200050354004, 118.0, -0.15131038427352905, -0.07514423131942749, 0.36631298065185547, 0.20398283004760742, 0.7987917065620422, 9.771934509277344, 0.0, 0.03849900886416435, 0.016965137794613838, 0.6165715456008911, 283.0, -4.672163154103719, -1.1957941950012188, YAS532 Magnetic Sensor
1536635707848, 0.05267243832349777, 0.7236474752426147, 10.1382474899292, 0.015577063895761967, -0.021380282938480377, 0.03176499158143997, 46.33300018310547, 13.609999656677246, 30.32200050354004, 118.0, -0.15131038427352905, -0.07514423131942749, 0.36631298065185547, 0.20398283004760742, 0.7987917065620422, 9.771934509277344, 0.0, 0.03849900886416435, 0.016965137794613838, 0.6165715456008911, 283.0, -4.672163154103719, -1.1957941950012188, K330 Gyroscope sensor
1536635707857, 0.05267243832349777, 0.7236474752426147, 10.1382474899292, 0.03237585723400116, -0.02687807008624077, 0.022907447069883347, 46.33300018310547, 13.609999656677246, 30.32200050354004, 118.0, -0.15131038427352905, -0.07514423131942749, 0.36631298065185547, 0.20398283004760742, 0.7987917065620422, 9.771934509277344, 0.0, 0.03849900886416435, 0.016965137794613838, 0.6165715456008911, 283.0, -4.672163154103719, -1.1957941950012188, K330 Gyroscope sensor
1536635707864, 0.05267243832349777, 0.7236474752426147, 10.1382474899292, 0.03237585723400116, -0.02687807008624077, 0.022907447069883347, 46.33300018310547, 13.609999656677246, 30.32200050354004, 118.0, -0.15131038427352905, -0.07514423131942749, 0.36631298065185547, 0.20398283004760742, 0.7987917065620422, 9.771934509277344, 0.0, 0.03849900886416435, 0.016965137794613838, 0.6165715456008911, 283.0, -4.672163154103719, -1.1957941950012188, YAS532 Magnetic Sensor
1536635707865, 0.05267243832349777, 0.7236474752426147, 10.1382474899292, 0.046731192618608475, -0.030543262138962746, 0.003054326167330146, 46.33300018310547, 13.609999656677246, 30.32200050354004, 118.0, -0.15131038427352905, -0.07514423131942749, 0.36631298065185547, 0.20398283004760742, 0.7987917065620422, 9.771934509277344, 0.0, 0.03849900886416435, 0.016965137794613838, 0.6165715456008911, 283.0, -4.672163154103719, -1.1957941950012188, K330 Gyroscope sensor
1536635707877, 0.05267243832349777, 0.7236474752426147, 10.1382474899292, 0.058337632566690445, -0.025045474991202354, -0.012522737495601177, 46.33300018310547, 13.609999656677246, 30.32200050354004, 118.0, -0.15131038427352905, -0.07514423131942749, 0.36631298065185547, 0.20398283004760742, 0.7987917065620422, 9.771934509277344, 0.0, 0.03849900886416435, 0.016965137794613838, 0.6165715456008911, 283.0, -4.672163154103719, -1.1957941950012188, K330 Gyroscope sensor
1536635707885, 0.05267243832349777, 0.7236474752426147, 10.1382474899292, 0.058337632566690445, -0.025045474991202354, -0.012522737495601177, 46.025001525878906, 13.609999656677246, 30.32200050354004, 118.0, -0.15131038427352905, -0.07514423131942749, 0.36631298065185547, 0.20398283004760742, 0.7987917065620422, 9.771934509277344, 0.0, 0.03849900886416435, 0.016965137794613838, 0.6165715456008911, 283.0, -4.672163154103719, -1.1957941950012188, YAS532 Magnetic Sensor
1536635707894, 0.05267243832349777, 0.7236474752426147, 10.1382474899292, 0.051312681287527084, -0.006108652334660292, -0.03298672288656235, 46.025001525878906, 13.609999656677246, 30.32200050354004, 118.0, -0.15131038427352905, -0.07514423131942749, 0.36631298065185547, 0.20398283004760742, 0.7987917065620422, 9.771934509277344, 0.0, 0.03849900886416435, 0.016965137794613838, 0.6165715456008911, 283.0, -4.672163154103719, -1.1957941950012188, K330 Gyroscope sensor
1536635707896, 0.05267243832349777, 0.7236474752426147, 10.1382474899292, 0.04581489413976669, 0.00855211354792118, -0.042760565876960754, 46.025001525878906, 13.609999656677246, 30.32200050354004, 118.0, -0.15131038427352905, -0.07514423131942749, 0.36631298065185547, 0.20398283004760742, 0.7987917065620422, 9.771934509277344, 0.0, 0.03849900886416435, 0.016965137794613838, 0.6165715456008911, 283.0, -4.672163154103719, -1.1957941950012188, K330 Gyroscope sensor
1536635707910, 0.05267243832349777, 0.7236474752426147, 10.1382474899292, 0.04581489413976669, 0.00855211354792118, -0.042760565876960754, 46.025001525878906, 13.609999656677246, 30.32200050354004, 118.0, -0.15131038427352905, -0.07514423131942749, 0.36631298065185547, 0.20398283004760742, 0.7987917065620422, 9.771934509277344, 0.0, 0.03849900886416435, 0.016965137794613838, 0.6165715456008911, 283.0, -4.672163154103719, -1.1957941950012188, YAS532 Magnetic Sensor
1536635707912, 0.05267243832349777, 0.7236474752426147, 10.1382474899292, 0.04764748737215996, 0.009468411095440388, -0.05253441259264946, 46.025001525878906, 13.609999656677246, 30.32200050354004, 118.0, -0.15131038427352905, -0.07514423131942749, 0.36631298065185547, 0.20398283004760742, 0.7987917065620422, 9.771934509277344, 0.0, 0.03849900886416435, 0.016965137794613838, 0.6165715456008911, 283.0, -4.672163154103719, -1.1957941950012188, K330 Gyroscope sensor
1536635707914, 0.05267243832349777, 0.7236474752426147, 10.1382474899292, 0.04886921867728233, -0.003359758760780096, -0.05497787147760391, 46.025001525878906, 13.609999656677246, 30.32200050354004, 118.0, -0.15131038427352905, -0.07514423131942749, 0.36631298065185547, 0.20398283004760742, 0.7987917065620422, 9.771934509277344, 0.0, 0.03849900886416435, 0.016965137794613838, 0.6165715456008911, 283.0, -4.672163154103719, -1.1957941950012188, K330 Gyroscope sensor
1536635707928, 0.05267243832349777, 0.7236474752426147, 10.1382474899292, 0.04886921867728233, -0.003359758760780096, -0.05497787147760391, 46.025001525878906, 13.609999656677246, 30.32200050354004, 118.0, -0.15131038427352905, -0.07514423131942749, 0.36631298065185547, 0.20398283004760742, 0.7987917065620422, 9.771934509277344, 0.0, 0.03849900886416435, 0.016965137794613838, 0.6165715456008911, 283.0, -4.672163154103719, -1.1957941950012188, YAS532 Magnetic Sensor
1536635707930, 0.05267243832349777, 0.7236474752426147, 10.1382474899292, 0.042760565876960754, -0.025045474991202354, -0.06811147183179855, 46.025001525878906, 13.609999656677246, 30.32200050354004, 118.0, -0.15131038427352905, -0.07514423131942749, 0.36631298065185547, 0.20398283004760742, 0.7987917065620422, 9.771934509277344, 0.0, 0.03849900886416435, 0.016965137794613838, 0.6165715456008911, 283.0, -4.672163154103719, -1.1957941950012188, K330 Gyroscope sensor
1536635707933, 0.05267243832349777, 0.7236474752426147, 10.1382474899292, 0.04184427112340927, -0.033597588539123535, -0.0858265683054924, 46.025001525878906, 13.609999656677246, 30.32200050354004, 118.0, -0.15131038427352905, -0.07514423131942749, 0.36631298065185547, 0.20398283004760742, 0.7987917065620422, 9.771934509277344, 0.0, 0.03849900886416435, 0.016965137794613838, 0.6165715456008911, 283.0, -4.672163154103719, -1.1957941950012188, K330 Gyroscope sensor
1536635707944, 0.05267243832349777, 0.7236474752426147, 10.1382474899292, 0.04184427112340927, -0.033597588539123535, -0.0858265683054924, 46.025001525878906, 13.609999656677246, 30.32200050354004, 118.0, -0.15131038427352905, -0.07514423131942749, 0.36631298065185547, 0.20398283004760742, 0.7987917065620422, 9.771934509277344, 0.0, 0.03849900886416435, 0.016965137794613838, 0.6165715456008911, 283.0, -4.672163154103719, -1.1957941950012188, YAS532 Magnetic Sensor
1536635707946, 0.05267243832349777, 0.7236474752426147, 10.1382474899292, 0.045204028487205505, -0.024129176512360573, -0.08949175477027893, 46.025001525878906, 13.609999656677246, 30.32200050354004, 118.0, -0.15131038427352905, -0.07514423131942749, 0.36631298065185547, 0.20398283004760742, 0.7987917065620422, 9.771934509277344, 0.0, 0.03849900886416435, 0.016965137794613838, 0.6165715456008911, 283.0, -4.672163154103719, -1.1957941950012188, K330 Gyroscope sensor
1536635707959, 0.05267243832349777, 0.7236474752426147, 10.1382474899292, 0.0455094613134861, -0.026572637259960175, -0.0913243517279625, 46.025001525878906, 13.609999656677246, 30.32200050354004, 118.0, -0.15131038427352905, -0.07514423131942749, 0.36631298065185547, 0.20398283004760742, 0.7987917065620422, 9.771934509277344, 0.0, 0.03849900886416435, 0.016965137794613838, 0.6165715456008911, 283.0, -4.672163154103719, -1.1957941950012188, K330 Gyroscope sensor
1536635707978, 0.2513911724090576, 1.3198037147521973, 9.505578994750977, 0.0455094613134861, -0.026572637259960175, -0.0913243517279625, 46.025001525878906, 13.609999656677246, 30.32200050354004, 118.0, -0.15131038427352905, -0.07514423131942749, 0.36631298065185547, 0.20398283004760742, 0.7987917065620422, 9.771934509277344, 0.0, 0.03849900886416435, 0.016965137794613838, 0.6165715456008911, 283.0, -4.672163154103719, -1.1957941950012188, K330 3-axis Accelerometer
1536635707979, 0.2513911724090576, 1.3198037147521973, 9.505578994750977, 0.0455094613134861, -0.026572637259960175, -0.0913243517279625, 46.025001525878906, 13.609999656677246, 30.32200050354004, 118.0, -0.15131038427352905, -0.07514423131942749, 0.36631298065185547, 0.22300121188163757, 0.9961645603179932, 9.753374099731445, 0.0, 0.03849900886416435, 0.016965137794613838, 0.6165715456008911, 283.0, -4.672163154103719, -1.1957941950012188, Gravity Sensor
1536635707981, 0.2513911724090576, 1.3198037147521973, 9.505578994750977, 0.0455094613134861, -0.026572637259960175, -0.0913243517279625, 46.025001525878906, 13.609999656677246, 30.32200050354004, 118.0, 0.028389960527420044, 0.3236391544342041, -0.24779510498046875, 0.22300121188163757, 0.9961645603179932, 9.753374099731445, 0.0, 0.03849900886416435, 0.016965137794613838, 0.6165715456008911, 283.0, -4.672163154103719, -1.1957941950012188, Linear Acceleration Sensor
1536635707983, 0.2513911724090576, 1.3198037147521973, 9.505578994750977, 0.0455094613134861, -0.026572637259960175, -0.0913243517279625, 46.025001525878906, 13.609999656677246, 30.32200050354004, 118.0, 0.028389960527420044, 0.3236391544342041, -0.24779510498046875, 0.22300121188163757, 0.9961645603179932, 9.753374099731445, 0.0, 0.04687945172190666, 0.02277323044836521, 0.6220455765724182, 282.0, -5.830196114669993, -1.3097594231191723, Rotation Vector Sensor
1536635707985, 0.2513911724090576, 1.3198037147521973, 9.505578994750977, 0.0455094613134861, -0.026572637259960175, -0.0913243517279625, 46.025001525878906, 13.609999656677246, 30.32200050354004, 118.0, 0.028389960527420044, 0.3236391544342041, -0.24779510498046875, 0.22300121188163757, 0.9961645603179932, 9.753374099731445, 0.0, 0.04687945172190666, 0.02277323044836521, 0.6220455765724182, 282.0, -5.830196114669993, -1.3097594231191723, Orientation Sensor
1536635707994, 0.2513911724090576, 1.3198037147521973, 9.505578994750977, 0.030237829312682152, -0.030543262138962746, -0.09437867999076843, 46.025001525878906, 13.609999656677246, 30.32200050354004, 118.0, 0.028389960527420044, 0.3236391544342041, -0.24779510498046875, 0.22300121188163757, 0.9961645603179932, 9.753374099731445, 0.0, 0.04687945172190666, 0.02277323044836521, 0.6220455765724182, 282.0, -5.830196114669993, -1.3097594231191723, K330 Gyroscope sensor
1536635707995, 0.2513911724090576, 1.3198037147521973, 9.505578994750977, 0.030237829312682152, -0.030543262138962746, -0.09437867999076843, 46.025001525878906, 13.609999656677246, 30.32200050354004, 118.0, 0.028389960527420044, 0.3236391544342041, -0.24779510498046875, 0.22300121188163757, 0.9961645603179932, 9.753374099731445, 0.0, 0.04687945172190666, 0.02277323044836521, 0.6220455765724182, 282.0, -5.830196114669993, -1.3097594231191723, YAS532 Magnetic Sensor
1536635707996, 0.2513911724090576, 1.3198037147521973, 9.505578994750977, 0.030237829312682152, -0.030543262138962746, -0.09437867999076843, 46.025001525878906, 13.609999656677246, 30.32200050354004, 118.0, 0.028389960527420044, 0.3236391544342041, -0.24779510498046875, 0.22300121188163757, 0.9961645603179932, 9.753374099731445, 996.9600219726563, 0.04687945172190666, 0.02277323044836521, 0.6220455765724182, 282.0, -5.830196114669993, -1.3097594231191723, Barometer Sensor
1536635707998, 0.2513911724090576, 1.3198037147521973, 9.505578994750977, 0.030237829312682152, -0.030543262138962746, -0.09437867999076843, 46.025001525878906, 13.609999656677246, 30.32200050354004, 116.0, 0.028389960527420044, 0.3236391544342041, -0.24779510498046875, 0.22300121188163757, 0.9961645603179932, 9.753374099731445, 996.9600219726563, 0.04687945172190666, 0.02277323044836521, 0.6220455765724182, 282.0, -5.830196114669993, -1.3097594231191723, CM3323 RGB Sensor
1536635707999, 0.2513911724090576, 1.3198037147521973, 9.505578994750977, 0.01710422709584236, -0.01710422709584236, -0.09804387390613556, 46.025001525878906, 13.609999656677246, 30.32200050354004, 116.0, 0.028389960527420044, 0.3236391544342041, -0.24779510498046875, 0.22300121188163757, 0.9961645603179932, 9.753374099731445, 996.9600219726563, 0.04687945172190666, 0.02277323044836521, 0.6220455765724182, 282.0, -5.830196114669993, -1.3097594231191723, K330 Gyroscope sensor
1536635708001, 0.2513911724090576, 1.3198037147521973, 9.505578994750977, 0.01710422709584236, -0.01710422709584236, -0.09804387390613556, 46.025001525878906, 13.609999656677246, 30.32200050354004, 116.0, 0.028389960527420044, 0.3236391544342041, -0.24779510498046875, 0.22300121188163757, 0.9961645603179932, 9.753374099731445, 996.9600219726563, 0.04687945172190666, 0.02277323044836521, 0.6220455765724182, 282.0, -5.830196114669993, -1.3097594231191723, YAS532 Magnetic Sensor
1536635708013, 0.2513911724090576, 1.3198037147521973, 9.505578994750977, -0.007635815534740686, -0.008857546374201775, -0.1111774742603302, 46.025001525878906, 13.609999656677246, 30.32200050354004, 116.0, 0.028389960527420044, 0.3236391544342041, -0.24779510498046875, 0.22300121188163757, 0.9961645603179932, 9.753374099731445, 996.9600219726563, 0.04687945172190666, 0.02277323044836521, 0.6220455765724182, 282.0, -5.830196114669993, -1.3097594231191723, K330 Gyroscope sensor
1536635708015, 0.2513911724090576, 1.3198037147521973, 9.505578994750977, -0.021380282938480377, 0.0, -0.12095131725072861, 46.025001525878906, 13.609999656677246, 30.32200050354004, 116.0, 0.028389960527420044, 0.3236391544342041, -0.24779510498046875, 0.22300121188163757, 0.9961645603179932, 9.753374099731445, 996.9600219726563, 0.04687945172190666, 0.02277323044836521, 0.6220455765724182, 282.0, -5.830196114669993, -1.3097594231191723, K330 Gyroscope sensor
1536635708016, 0.2513911724090576, 1.3198037147521973, 9.505578994750977, -0.021380282938480377, 0.0, -0.12095131725072861, 46.025001525878906, 13.609999656677246, 30.32200050354004, 116.0, 0.028389960527420044, 0.3236391544342041, -0.24779510498046875, 0.22300121188163757, 0.9961645603179932, 9.753374099731445, 996.9600219726563, 0.04687945172190666, 0.02277323044836521, 0.6220455765724182, 282.0, -5.830196114669993, -1.3097594231191723, YAS532 Magnetic Sensor
1536635708017, 0.2513911724090576, 1.3198037147521973, 9.505578994750977, -0.030543262138962746, -0.0039706239476799965, -0.12095131725072861, 46.025001525878906, 13.609999656677246, 30.32200050354004, 116.0, 0.028389960527420044, 0.3236391544342041, -0.24779510498046875, 0.22300121188163757, 0.9961645603179932, 9.753374099731445, 996.9600219726563, 0.04687945172190666, 0.02277323044836521, 0.6220455765724182, 282.0, -5.830196114669993, -1.3097594231191723, K330 Gyroscope sensor
1536635708018, 0.2513911724090576, 1.3198037147521973, 9.505578994750977, -0.03787364438176155, -0.014966198243200779, -0.1264491081237793, 46.025001525878906, 13.609999656677246, 30.32200050354004, 116.0, 0.028389960527420044, 0.3236391544342041, -0.24779510498046875, 0.22300121188163757, 0.9961645603179932, 9.753374099731445, 996.9600219726563, 0.04687945172190666, 0.02277323044836521, 0.6220455765724182, 282.0, -5.830196114669993, -1.3097594231191723, K330 Gyroscope sensor
1536635708025, 0.2513911724090576, 1.3198037147521973, 9.505578994750977, -0.03787364438176155, -0.014966198243200779, -0.1264491081237793, 46.025001525878906, 13.609999656677246, 30.32200050354004, 116.0, 0.028389960527420044, 0.3236391544342041, -0.24779510498046875, 0.22300121188163757, 0.9961645603179932, 9.753374099731445, 996.9600219726563, 0.04687945172190666, 0.02277323044836521, 0.6220455765724182, 282.0, -5.830196114669993, -1.3097594231191723, YAS532 Magnetic Sensor
1536635708026, 0.2513911724090576, 1.3198037147521973, 9.505578994750977, -0.052228979766368866, -0.023518312722444534, -0.12370020896196365, 46.025001525878906, 13.609999656677246, 30.32200050354004, 116.0, 0.028389960527420044, 0.3236391544342041, -0.24779510498046875, 0.22300121188163757, 0.9961645603179932, 9.753374099731445, 996.9600219726563, 0.04687945172190666, 0.02277323044836521, 0.6220455765724182, 282.0, -5.830196114669993, -1.3097594231191723, K330 Gyroscope sensor
1536635708034, 0.2513911724090576, 1.3198037147521973, 9.505578994750977, -0.05742133408784866, -0.022602014243602753, -0.10995574295520782, 46.025001525878906, 13.609999656677246, 30.32200050354004, 116.0, 0.028389960527420044, 0.3236391544342041, -0.24779510498046875, 0.22300121188163757, 0.9961645603179932, 9.753374099731445, 996.9600219726563, 0.04687945172190666, 0.02277323044836521, 0.6220455765724182, 282.0, -5.830196114669993, -1.3097594231191723, K330 Gyroscope sensor
1536635708046, 0.2513911724090576, 1.3198037147521973, 9.505578994750977, -0.05742133408784866, -0.022602014243602753, -0.10995574295520782, 46.025001525878906, 13.609999656677246, 30.32200050354004, 116.0, 0.028389960527420044, 0.3236391544342041, -0.24779510498046875, 0.22300121188163757, 0.9961645603179932, 9.753374099731445, 996.9600219726563, 0.04687945172190666, 0.02277323044836521, 0.6220455765724182, 282.0, -5.830196114669993, -1.3097594231191723, YAS532 Magnetic Sensor
1536635708047, 0.2513911724090576, 1.3198037147521973, 9.505578994750977, -0.051312681287527084, -0.014355333521962166, -0.10354165732860565, 46.025001525878906, 13.609999656677246, 30.32200050354004, 116.0, 0.028389960527420044, 0.3236391544342041, -0.24779510498046875, 0.22300121188163757, 0.9961645603179932, 9.753374099731445, 996.9600219726563, 0.04687945172190666, 0.02277323044836521, 0.6220455765724182, 282.0, -5.830196114669993, -1.3097594231191723, K330 Gyroscope sensor
1536635708058, 0.2513911724090576, 1.3198037147521973, 9.505578994750977, -0.04795292019844055, -0.002138028386980295, -0.10323622822761536, 46.025001525878906, 13.609999656677246, 30.32200050354004, 116.0, 0.028389960527420044, 0.3236391544342041, -0.24779510498046875, 0.22300121188163757, 0.9961645603179932, 9.753374099731445, 996.9600219726563, 0.04687945172190666, 0.02277323044836521, 0.6220455765724182, 282.0, -5.830196114669993, -1.3097594231191723, K330 Gyroscope sensor
1536635708065, 0.2513911724090576, 1.3198037147521973, 9.505578994750977, -0.04795292019844055, -0.002138028386980295, -0.10323622822761536, 46.025001525878906, 13.609999656677246, 30.32200050354004, 116.0, 0.028389960527420044, 0.3236391544342041, -0.24779510498046875, 0.22300121188163757, 0.9961645603179932, 9.753374099731445, 996.9600219726563, 0.04687945172190666, 0.02277323044836521, 0.6220455765724182, 282.0, -5.830196114669993, -1.3097594231191723, YAS532 Magnetic Sensor
1536635708067, 0.2513911724090576, 1.3198037147521973, 9.505578994750977, -0.036041051149368286, 0.00366519158706069, -0.09926560521125793, 46.025001525878906, 13.609999656677246, 30.32200050354004, 116.0, 0.028389960527420044, 0.3236391544342041, -0.24779510498046875, 0.22300121188163757, 0.9961645603179932, 9.753374099731445, 996.9600219726563, 0.04687945172190666, 0.02277323044836521, 0.6220455765724182, 282.0, -5.830196114669993, -1.3097594231191723, K330 Gyroscope sensor
1536635708075, 0.2513911724090576, 1.3198037147521973, 9.505578994750977, -0.018020525574684143, 0.01038470957428217, -0.08888089656829834, 46.025001525878906, 13.609999656677246, 30.32200050354004, 116.0, 0.028389960527420044, 0.3236391544342041, -0.24779510498046875, 0.22300121188163757, 0.9961645603179932, 9.753374099731445, 996.9600219726563, 0.04687945172190666, 0.02277323044836521, 0.6220455765724182, 282.0, -5.830196114669993, -1.3097594231191723, K330 Gyroscope sensor
1536635708084, 0.2513911724090576, 1.3198037147521973, 9.505578994750977, -0.018020525574684143, 0.01038470957428217, -0.08888089656829834, 46.025001525878906, 13.609999656677246, 30.32200050354004, 116.0, 0.028389960527420044, 0.3236391544342041, -0.24779510498046875, 0.22300121188163757, 0.9961645603179932, 9.753374099731445, 996.9600219726563, 0.04687945172190666, 0.02277323044836521, 0.6220455765724182, 282.0, -5.830196114669993, -1.3097594231191723, YAS532 Magnetic Sensor
1536635708085, 0.2513911724090576, 1.3198037147521973, 9.505578994750977, -0.005803219974040985, 0.0064140851609408855, -0.07788532227277756, 46.025001525878906, 13.609999656677246, 30.32200050354004, 116.0, 0.028389960527420044, 0.3236391544342041, -0.24779510498046875, 0.22300121188163757, 0.9961645603179932, 9.753374099731445, 996.9600219726563, 0.04687945172190666, 0.02277323044836521, 0.6220455765724182, 282.0, -5.830196114669993, -1.3097594231191723, K330 Gyroscope sensor
1536635708097, 0.2513911724090576, 1.3198037147521973, 9.505578994750977, 0.003054326167330146, -0.012522737495601177, -0.06963863968849182, 46.025001525878906, 13.609999656677246, 30.32200050354004, 116.0, 0.028389960527420044, 0.3236391544342041, -0.24779510498046875, 0.22300121188163757, 0.9961645603179932, 9.753374099731445, 996.9600219726563, 0.04687945172190666, 0.02277323044836521, 0.6220455765724182, 282.0, -5.830196114669993, -1.3097594231191723, K330 Gyroscope sensor
1536635708104, 0.2513911724090576, 1.3198037147521973, 9.505578994750977, 0.003054326167330146, -0.012522737495601177, -0.06963863968849182, 46.025001525878906, 13.609999656677246, 30.32200050354004, 116.0, 0.028389960527420044, 0.3236391544342041, -0.24779510498046875, 0.22300121188163757, 0.9961645603179932, 9.753374099731445, 996.9600219726563, 0.04687945172190666, 0.02277323044836521, 0.6220455765724182, 282.0, -5.830196114669993, -1.3097594231191723, YAS532 Magnetic Sensor
1536635708105, 0.2513911724090576, 1.3198037147521973, 9.505578994750977, 0.00427605677396059, -0.03145955875515938, -0.061391957104206085, 46.025001525878906, 13.609999656677246, 30.32200050354004, 116.0, 0.028389960527420044, 0.3236391544342041, -0.24779510498046875, 0.22300121188163757, 0.9961645603179932, 9.753374099731445, 996.9600219726563, 0.04687945172190666, 0.02277323044836521, 0.6220455765724182, 282.0, -5.830196114669993, -1.3097594231191723, K330 Gyroscope sensor
1536635708112, 0.2513911724090576, 1.3198037147521973, 9.505578994750977, -0.01160643994808197, -0.03848451003432274, -0.06230825558304787, 46.025001525878906, 13.609999656677246, 30.32200050354004, 116.0, 0.028389960527420044, 0.3236391544342041, -0.24779510498046875, 0.22300121188163757, 0.9961645603179932, 9.753374099731445, 996.9600219726563, 0.04687945172190666, 0.02277323044836521, 0.6220455765724182, 282.0, -5.830196114669993, -1.3097594231191723, K330 Gyroscope sensor
1536635708124, 0.2513911724090576, 1.3198037147521973, 9.505578994750977, -0.01160643994808197, -0.03848451003432274, -0.06230825558304787, 46.025001525878906, 13.609999656677246, 30.003999710083008, 116.0, 0.028389960527420044, 0.3236391544342041, -0.24779510498046875, 0.22300121188163757, 0.9961645603179932, 9.753374099731445, 996.9600219726563, 0.04687945172190666, 0.02277323044836521, 0.6220455765724182, 282.0, -5.830196114669993, -1.3097594231191723, YAS532 Magnetic Sensor
1536635708125, 0.2513911724090576, 1.3198037147521973, 9.505578994750977, -0.026572637259960175, -0.039706241339445114, -0.06291911751031876, 46.025001525878906, 13.609999656677246, 30.003999710083008, 116.0, 0.028389960527420044, 0.3236391544342041, -0.24779510498046875, 0.22300121188163757, 0.9961645603179932, 9.753374099731445, 996.9600219726563, 0.04687945172190666, 0.02277323044836521, 0.6220455765724182, 282.0, -5.830196114669993, -1.3097594231191723, K330 Gyroscope sensor
1536635708132, 0.2513911724090576, 1.3198037147521973, 9.505578994750977, -0.029932396486401558, -0.030543262138962746, -0.06108652427792549, 46.025001525878906, 13.609999656677246, 30.003999710083008, 116.0, 0.028389960527420044, 0.3236391544342041, -0.24779510498046875, 0.22300121188163757, 0.9961645603179932, 9.753374099731445, 996.9600219726563, 0.04687945172190666, 0.02277323044836521, 0.6220455765724182, 282.0, -5.830196114669993, -1.3097594231191723, K330 Gyroscope sensor
1536635708148, 0.4704606235027313, 1.5771803855895996, 9.873088836669922, -0.029932396486401558, -0.030543262138962746, -0.06108652427792549, 46.025001525878906, 13.609999656677246, 30.003999710083008, 116.0, 0.028389960527420044, 0.3236391544342041, -0.24779510498046875, 0.22300121188163757, 0.9961645603179932, 9.753374099731445, 996.9600219726563, 0.04687945172190666, 0.02277323044836521, 0.6220455765724182, 282.0, -5.830196114669993, -1.3097594231191723, K330 3-axis Accelerometer
1536635708149, 0.4704606235027313, 1.5771803855895996, 9.873088836669922, -0.029932396486401558, -0.030543262138962746, -0.06108652427792549, 46.025001525878906, 13.609999656677246, 30.003999710083008, 116.0, 0.028389960527420044, 0.3236391544342041, -0.24779510498046875, 0.2697244882583618, 1.1902538537979126, 9.730413436889648, 996.9600219726563, 0.04687945172190666, 0.02277323044836521, 0.6220455765724182, 282.0, -5.830196114669993, -1.3097594231191723, Gravity Sensor
1536635708150, 0.4704606235027313, 1.5771803855895996, 9.873088836669922, -0.029932396486401558, -0.030543262138962746, -0.06108652427792549, 46.025001525878906, 13.609999656677246, 30.003999710083008, 116.0, 0.2007361352443695, 0.386926531791687, 0.14267539978027344, 0.2697244882583618, 1.1902538537979126, 9.730413436889648, 996.9600219726563, 0.04687945172190666, 0.02277323044836521, 0.6220455765724182, 282.0, -5.830196114669993, -1.3097594231191723, Linear Acceleration Sensor
1536635708151, 0.4704606235027313, 1.5771803855895996, 9.873088836669922, -0.029932396486401558, -0.030543262138962746, -0.06108652427792549, 46.025001525878906, 13.609999656677246, 30.003999710083008, 116.0, 0.2007361352443695, 0.386926531791687, 0.14267539978027344, 0.2697244882583618, 1.1902538537979126, 9.730413436889648, 996.9600219726563, 0.05545620992779732, 0.02542288228869438, 0.6258143186569214, 282.0, -6.7803590980361, -1.7239577824794954, Rotation Vector Sensor
1536635708153, 0.4704606235027313, 1.5771803855895996, 9.873088836669922, -0.029932396486401558, -0.030543262138962746, -0.06108652427792549, 46.025001525878906, 13.609999656677246, 30.003999710083008, 116.0, 0.2007361352443695, 0.386926531791687, 0.14267539978027344, 0.2697244882583618, 1.1902538537979126, 9.730413436889648, 996.9600219726563, 0.05545620992779732, 0.02542288228869438, 0.6258143186569214, 282.0, -6.7803590980361, -1.7239577824794954, Orientation Sensor
1536635708155, 0.4704606235027313, 1.5771803855895996, 9.873088836669922, -0.029932396486401558, -0.030543262138962746, -0.06108652427792549, 46.025001525878906, 13.609999656677246, 30.003999710083008, 116.0, 0.2007361352443695, 0.386926531791687, 0.14267539978027344, 0.2697244882583618, 1.1902538537979126, 9.730413436889648, 996.9600219726563, 0.05545620992779732, 0.02542288228869438, 0.6258143186569214, 282.0, -6.7803590980361, -1.7239577824794954, YAS532 Magnetic Sensor
1536635708156, 0.4704606235027313, 1.5771803855895996, 9.873088836669922, -0.03451388701796532, -0.025961773470044136, -0.0656680166721344, 46.025001525878906, 13.609999656677246, 30.003999710083008, 116.0, 0.2007361352443695, 0.386926531791687, 0.14267539978027344, 0.2697244882583618, 1.1902538537979126, 9.730413436889648, 996.9600219726563, 0.05545620992779732, 0.02542288228869438, 0.6258143186569214, 282.0, -6.7803590980361, -1.7239577824794954, K330 Gyroscope sensor
1536635708157, 0.4704606235027313, 1.5771803855895996, 9.873088836669922, -0.03451388701796532, -0.025961773470044136, -0.0656680166721344, 46.025001525878906, 13.609999656677246, 30.003999710083008, 116.0, 0.2007361352443695, 0.386926531791687, 0.14267539978027344, 0.2697244882583618, 1.1902538537979126, 9.730413436889648, 996.97998046875, 0.05545620992779732, 0.02542288228869438, 0.6258143186569214, 282.0, -6.7803590980361, -1.7239577824794954, Barometer Sensor
1536635708159, 0.4704606235027313, 1.5771803855895996, 9.873088836669922, -0.03451388701796532, -0.025961773470044136, -0.0656680166721344, 46.025001525878906, 13.609999656677246, 30.003999710083008, 120.0, 0.2007361352443695, 0.386926531791687, 0.14267539978027344, 0.2697244882583618, 1.1902538537979126, 9.730413436889648, 996.97998046875, 0.05545620992779732, 0.02542288228869438, 0.6258143186569214, 282.0, -6.7803590980361, -1.7239577824794954, CM3323 RGB Sensor
1536635708160, 0.4704606235027313, 1.5771803855895996, 9.873088836669922, -0.029932396486401558, -0.03573561832308769, -0.08155050873756409, 46.025001525878906, 13.609999656677246, 30.003999710083008, 120.0, 0.2007361352443695, 0.386926531791687, 0.14267539978027344, 0.2697244882583618, 1.1902538537979126, 9.730413436889648, 996.97998046875, 0.05545620992779732, 0.02542288228869438, 0.6258143186569214, 282.0, -6.7803590980361, -1.7239577824794954, K330 Gyroscope sensor
1536635708164, 0.4704606235027313, 1.5771803855895996, 9.873088836669922, -0.029932396486401558, -0.03573561832308769, -0.08155050873756409, 46.025001525878906, 13.284000396728516, 30.003999710083008, 120.0, 0.2007361352443695, 0.386926531791687, 0.14267539978027344, 0.2697244882583618, 1.1902538537979126, 9.730413436889648, 996.97998046875, 0.05545620992779732, 0.02542288228869438, 0.6258143186569214, 282.0, -6.7803590980361, -1.7239577824794954, YAS532 Magnetic Sensor
1536635708165, 0.4704606235027313, 1.5771803855895996, 9.873088836669922, -0.02535090781748295, -0.06505715101957321, -0.09957103431224823, 46.025001525878906, 13.284000396728516, 30.003999710083008, 120.0, 0.2007361352443695, 0.386926531791687, 0.14267539978027344, 0.2697244882583618, 1.1902538537979126, 9.730413436889648, 996.97998046875, 0.05545620992779732, 0.02542288228869438, 0.6258143186569214, 282.0, -6.7803590980361, -1.7239577824794954, K330 Gyroscope sensor
1536635708173, 0.4704606235027313, 1.5771803855895996, 9.873088836669922, -0.029016099870204926, -0.06719517707824707, -0.12400564551353455, 46.025001525878906, 13.284000396728516, 30.003999710083008, 120.0, 0.2007361352443695, 0.386926531791687, 0.14267539978027344, 0.2697244882583618, 1.1902538537979126, 9.730413436889648, 996.97998046875, 0.05545620992779732, 0.02542288228869438, 0.6258143186569214, 282.0, -6.7803590980361, -1.7239577824794954, K330 Gyroscope sensor
1536635708188, 0.4704606235027313, 1.5771803855895996, 9.873088836669922, -0.029016099870204926, -0.06719517707824707, -0.12400564551353455, 46.025001525878906, 13.284000396728516, 30.003999710083008, 120.0, 0.2007361352443695, 0.386926531791687, 0.14267539978027344, 0.2697244882583618, 1.1902538537979126, 9.730413436889648, 996.97998046875, 0.05545620992779732, 0.02542288228869438, 0.6258143186569214, 282.0, -6.7803590980361, -1.7239577824794954, YAS532 Magnetic Sensor
1536635708190, 0.4704606235027313, 1.5771803855895996, 9.873088836669922, -0.02535090781748295, -0.04703662544488907, -0.13530665636062622, 46.025001525878906, 13.284000396728516, 30.003999710083008, 120.0, 0.2007361352443695, 0.386926531791687, 0.14267539978027344, 0.2697244882583618, 1.1902538537979126, 9.730413436889648, 996.97998046875, 0.05545620992779732, 0.02542288228869438, 0.6258143186569214, 282.0, -6.7803590980361, -1.7239577824794954, K330 Gyroscope sensor
1536635708193, 0.4704606235027313, 1.5771803855895996, 9.873088836669922, -0.02474004216492176, -0.03176499158143997, -0.13408492505550385, 46.025001525878906, 13.284000396728516, 30.003999710083008, 120.0, 0.2007361352443695, 0.386926531791687, 0.14267539978027344, 0.2697244882583618, 1.1902538537979126, 9.730413436889648, 996.97998046875, 0.05545620992779732, 0.02542288228869438, 0.6258143186569214, 282.0, -6.7803590980361, -1.7239577824794954, K330 Gyroscope sensor
1536635708209, 0.4704606235027313, 1.5771803855895996, 9.873088836669922, -0.02474004216492176, -0.03176499158143997, -0.13408492505550385, 46.025001525878906, 13.284000396728516, 30.003999710083008, 120.0, 0.2007361352443695, 0.386926531791687, 0.14267539978027344, 0.2697244882583618, 1.1902538537979126, 9.730413436889648, 996.97998046875, 0.05545620992779732, 0.02542288228869438, 0.6258143186569214, 282.0, -6.7803590980361, -1.7239577824794954, YAS532 Magnetic Sensor
1536635708210, 0.4704606235027313, 1.5771803855895996, 9.873088836669922, -0.03787364438176155, -0.024434609338641167, -0.12492194026708603, 46.025001525878906, 13.284000396728516, 30.003999710083008, 120.0, 0.2007361352443695, 0.386926531791687, 0.14267539978027344, 0.2697244882583618, 1.1902538537979126, 9.730413436889648, 996.97998046875, 0.05545620992779732, 0.02542288228869438, 0.6258143186569214, 282.0, -6.7803590980361, -1.7239577824794954, K330 Gyroscope sensor
1536635708215, 0.4704606235027313, 1.5771803855895996, 9.873088836669922, -0.04642575979232788, -0.024434609338641167, -0.12003502249717712, 46.025001525878906, 13.284000396728516, 30.003999710083008, 120.0, 0.2007361352443695, 0.386926531791687, 0.14267539978027344, 0.2697244882583618, 1.1902538537979126, 9.730413436889648, 996.97998046875, 0.05545620992779732, 0.02542288228869438, 0.6258143186569214, 282.0, -6.7803590980361, -1.7239577824794954, K330 Gyroscope sensor
1536635708226, 0.4704606235027313, 1.5771803855895996, 9.873088836669922, -0.04642575979232788, -0.024434609338641167, -0.12003502249717712, 46.025001525878906, 13.284000396728516, 30.003999710083008, 120.0, 0.2007361352443695, 0.386926531791687, 0.14267539978027344, 0.2697244882583618, 1.1902538537979126, 9.730413436889648, 996.97998046875, 0.05545620992779732, 0.02542288228869438, 0.6258143186569214, 282.0, -6.7803590980361, -1.7239577824794954, YAS532 Magnetic Sensor
1536635708228, 0.4704606235027313, 1.5771803855895996, 9.873088836669922, -0.06108652427792549, -0.025045474991202354, -0.1160643994808197, 46.025001525878906, 13.284000396728516, 30.003999710083008, 120.0, 0.2007361352443695, 0.386926531791687, 0.14267539978027344, 0.2697244882583618, 1.1902538537979126, 9.730413436889648, 996.97998046875, 0.05545620992779732, 0.02542288228869438, 0.6258143186569214, 282.0, -6.7803590980361, -1.7239577824794954, K330 Gyroscope sensor
1536635708234, 0.4704606235027313, 1.5771803855895996, 9.873088836669922, -0.07849618047475815, -0.02626720629632473, -0.11545353382825851, 46.025001525878906, 13.284000396728516, 30.003999710083008, 120.0, 0.2007361352443695, 0.386926531791687, 0.14267539978027344, 0.2697244882583618, 1.1902538537979126, 9.730413436889648, 996.97998046875, 0.05545620992779732, 0.02542288228869438, 0.6258143186569214, 282.0, -6.7803590980361, -1.7239577824794954, K330 Gyroscope sensor
1536635708249, 0.4704606235027313, 1.5771803855895996, 9.873088836669922, -0.07849618047475815, -0.02626720629632473, -0.11545353382825851, 46.025001525878906, 13.284000396728516, 30.003999710083008, 120.0, 0.2007361352443695, 0.386926531791687, 0.14267539978027344, 0.2697244882583618, 1.1902538537979126, 9.730413436889648, 996.97998046875, 0.05545620992779732, 0.02542288228869438, 0.6258143186569214, 282.0, -6.7803590980361, -1.7239577824794954, YAS532 Magnetic Sensor
1536635708251, 0.4704606235027313, 1.5771803855895996, 9.873088836669922, -0.0913243517279625, -0.024129176512360573, -0.1062905490398407, 46.025001525878906, 13.284000396728516, 30.003999710083008, 120.0, 0.2007361352443695, 0.386926531791687, 0.14267539978027344, 0.2697244882583618, 1.1902538537979126, 9.730413436889648, 996.97998046875, 0.05545620992779732, 0.02542288228869438, 0.6258143186569214, 282.0, -6.7803590980361, -1.7239577824794954, K330 Gyroscope sensor
1536635708254, 0.4704606235027313, 1.5771803855895996, 9.873088836669922, -0.08827003091573715, -0.022907447069883347, -0.09254608303308487, 46.025001525878906, 13.284000396728516, 30.003999710083008, 120.0, 0.2007361352443695, 0.386926531791687, 0.14267539978027344, 0.2697244882583618, 1.1902538537979126, 9.730413436889648, 996.97998046875, 0.05545620992779732, 0.02542288228869438, 0.6258143186569214, 282.0, -6.7803590980361, -1.7239577824794954, K330 Gyroscope sensor
1536635708269, 0.4704606235027313, 1.5771803855895996, 9.873088836669922, -0.08827003091573715, -0.022907447069883347, -0.09254608303308487, 45.7130012512207, 12.984999656677246, 30.003999710083008, 120.0, 0.2007361352443695, 0.386926531791687, 0.14267539978027344, 0.2697244882583618, 1.1902538537979126, 9.730413436889648, 996.97998046875, 0.05545620992779732, 0.02542288228869438, 0.6258143186569214, 282.0, -6.7803590980361, -1.7239577824794954, YAS532 Magnetic Sensor
1536635708270, 0.4704606235027313, 1.5771803855895996, 9.873088836669922, -0.07849618047475815, -0.02474004216492176, -0.08552113175392151, 45.7130012512207, 12.984999656677246, 30.003999710083008, 120.0, 0.2007361352443695, 0.386926531791687, 0.14267539978027344, 0.2697244882583618, 1.1902538537979126, 9.730413436889648, 996.97998046875, 0.05545620992779732, 0.02542288228869438, 0.6258143186569214, 282.0, -6.7803590980361, -1.7239577824794954, K330 Gyroscope sensor
1536635708275, 0.4704606235027313, 1.5771803855895996, 9.873088836669922, -0.07757988572120667, -0.036651913076639175, -0.08674286305904388, 45.7130012512207, 12.984999656677246, 30.003999710083008, 120.0, 0.2007361352443695, 0.386926531791687, 0.14267539978027344, 0.2697244882583618, 1.1902538537979126, 9.730413436889648, 996.97998046875, 0.05545620992779732, 0.02542288228869438, 0.6258143186569214, 282.0, -6.7803590980361, -1.7239577824794954, K330 Gyroscope sensor
1536635708286, 0.4704606235027313, 1.5771803855895996, 9.873088836669922, -0.07757988572120667, -0.036651913076639175, -0.08674286305904388, 45.7130012512207, 12.984999656677246, 30.003999710083008, 120.0, 0.2007361352443695, 0.386926531791687, 0.14267539978027344, 0.2697244882583618, 1.1902538537979126, 9.730413436889648, 996.97998046875, 0.05545620992779732, 0.02542288228869438, 0.6258143186569214, 282.0, -6.7803590980361, -1.7239577824794954, YAS532 Magnetic Sensor
1536635708288, 0.4704606235027313, 1.5771803855895996, 9.873088836669922, -0.08704829961061478, -0.055894169956445694, -0.07849618047475815, 45.7130012512207, 12.984999656677246, 30.003999710083008, 120.0, 0.2007361352443695, 0.386926531791687, 0.14267539978027344, 0.2697244882583618, 1.1902538537979126, 9.730413436889648, 996.97998046875, 0.05545620992779732, 0.02542288228869438, 0.6258143186569214, 282.0, -6.7803590980361, -1.7239577824794954, K330 Gyroscope sensor
1536635708294, 0.4704606235027313, 1.5771803855895996, 9.873088836669922, -0.09376781433820724, -0.07024950534105301, -0.0705549344420433, 45.7130012512207, 12.984999656677246, 30.003999710083008, 120.0, 0.2007361352443695, 0.386926531791687, 0.14267539978027344, 0.2697244882583618, 1.1902538537979126, 9.730413436889648, 996.97998046875, 0.05545620992779732, 0.02542288228869438, 0.6258143186569214, 282.0, -6.7803590980361, -1.7239577824794954, K330 Gyroscope sensor
1536635708308, 0.4704606235027313, 1.5771803855895996, 9.873088836669922, -0.09376781433820724, -0.07024950534105301, -0.0705549344420433, 45.7130012512207, 12.984999656677246, 30.003999710083008, 120.0, 0.2007361352443695, 0.386926531791687, 0.14267539978027344, 0.2697244882583618, 1.1902538537979126, 9.730413436889648, 996.97998046875, 0.05545620992779732, 0.02542288228869438, 0.6258143186569214, 282.0, -6.7803590980361, -1.7239577824794954, YAS532 Magnetic Sensor
1536635708310, 0.4704606235027313, 1.5771803855895996, 9.873088836669922, -0.10873401165008545, -0.07360926270484924, -0.0555887371301651, 45.7130012512207, 12.984999656677246, 30.003999710083008, 120.0, 0.2007361352443695, 0.386926531791687, 0.14267539978027344, 0.2697244882583618, 1.1902538537979126, 9.730413436889648, 996.97998046875, 0.05545620992779732, 0.02542288228869438, 0.6258143186569214, 282.0, -6.7803590980361, -1.7239577824794954, K330 Gyroscope sensor
1536635708314, 0.4704606235027313, 1.5771803855895996, 9.873088836669922, -0.12308934330940247, -0.07024950534105301, -0.038179077208042145, 45.7130012512207, 12.984999656677246, 30.003999710083008, 120.0, 0.2007361352443695, 0.386926531791687, 0.14267539978027344, 0.2697244882583618, 1.1902538537979126, 9.730413436889648, 996.97998046875, 0.05545620992779732, 0.02542288228869438, 0.6258143186569214, 282.0, -6.7803590980361, -1.7239577824794954, K330 Gyroscope sensor
1536635708333, 0.6087257862091064, 1.4718354940414429, 9.706093788146973, -0.12308934330940247, -0.07024950534105301, -0.038179077208042145, 45.7130012512207, 12.984999656677246, 30.003999710083008, 120.0, 0.2007361352443695, 0.386926531791687, 0.14267539978027344, 0.2697244882583618, 1.1902538537979126, 9.730413436889648, 996.97998046875, 0.05545620992779732, 0.02542288228869438, 0.6258143186569214, 282.0, -6.7803590980361, -1.7239577824794954, K330 3-axis Accelerometer
1536635708335, 0.6087257862091064, 1.4718354940414429, 9.706093788146973, -0.12308934330940247, -0.07024950534105301, -0.038179077208042145, 45.7130012512207, 12.984999656677246, 30.003999710083008, 120.0, 0.2007361352443695, 0.386926531791687, 0.14267539978027344, 0.30701735615730286, 1.0009876489639282, 9.750597953796387, 996.97998046875, 0.05545620992779732, 0.02542288228869438, 0.6258143186569214, 282.0, -6.7803590980361, -1.7239577824794954, Gravity Sensor
1536635708339, 0.6087257862091064, 1.4718354940414429, 9.706093788146973, -0.12308934330940247, -0.07024950534105301, -0.038179077208042145, 45.7130012512207, 12.984999656677246, 30.003999710083008, 120.0, 0.3017084300518036, 0.47084784507751465, -0.04450416564941406, 0.30701735615730286, 1.0009876489639282, 9.750597953796387, 996.97998046875, 0.05545620992779732, 0.02542288228869438, 0.6258143186569214, 282.0, -6.7803590980361, -1.7239577824794954, Linear Acceleration Sensor
1536635708341, 0.6087257862091064, 1.4718354940414429, 9.706093788146973, -0.12308934330940247, -0.07024950534105301, -0.038179077208042145, 45.7130012512207, 12.984999656677246, 30.003999710083008, 120.0, 0.3017084300518036, 0.47084784507751465, -0.04450416564941406, 0.30701735615730286, 1.0009876489639282, 9.750597953796387, 996.97998046875, 0.05047077685594559, 0.0210801400244236, 0.6267333626747131, 282.0, -6.020616666088071, -1.757013977071653, Rotation Vector Sensor
1536635708344, 0.6087257862091064, 1.4718354940414429, 9.706093788146973, -0.12308934330940247, -0.07024950534105301, -0.038179077208042145, 45.7130012512207, 12.984999656677246, 30.003999710083008, 120.0, 0.3017084300518036, 0.47084784507751465, -0.04450416564941406, 0.30701735615730286, 1.0009876489639282, 9.750597953796387, 996.97998046875, 0.05047077685594559, 0.0210801400244236, 0.6267333626747131, 282.0, -6.020616666088071, -1.757013977071653, Orientation Sensor
1536635708346, 0.6087257862091064, 1.4718354940414429, 9.706093788146973, -0.12034045159816742, -0.06261368840932846, -0.02871066704392433, 45.7130012512207, 12.984999656677246, 30.003999710083008, 120.0, 0.3017084300518036, 0.47084784507751465, -0.04450416564941406, 0.30701735615730286, 1.0009876489639282, 9.750597953796387, 996.97998046875, 0.05047077685594559, 0.0210801400244236, 0.6267333626747131, 282.0, -6.020616666088071, -1.757013977071653, K330 Gyroscope sensor
1536635708348, 0.6087257862091064, 1.4718354940414429, 9.706093788146973, -0.12034045159816742, -0.06261368840932846, -0.02871066704392433, 45.7130012512207, 12.984999656677246, 30.003999710083008, 120.0, 0.3017084300518036, 0.47084784507751465, -0.04450416564941406, 0.30701735615730286, 1.0009876489639282, 9.750597953796387, 996.97998046875, 0.05047077685594559, 0.0210801400244236, 0.6267333626747131, 282.0, -6.020616666088071, -1.757013977071653, YAS532 Magnetic Sensor
1536635708350, 0.6087257862091064, 1.4718354940414429, 9.706093788146973, -0.12034045159816742, -0.06261368840932846, -0.02871066704392433, 45.7130012512207, 12.984999656677246, 30.003999710083008, 120.0, 0.3017084300518036, 0.47084784507751465, -0.04450416564941406, 0.30701735615730286, 1.0009876489639282, 9.750597953796387, 996.9099731445313, 0.05047077685594559, 0.0210801400244236, 0.6267333626747131, 282.0, -6.020616666088071, -1.757013977071653, Barometer Sensor
1536635708353, 0.6087257862091064, 1.4718354940414429, 9.706093788146973, -0.12034045159816742, -0.06261368840932846, -0.02871066704392433, 45.7130012512207, 12.984999656677246, 30.003999710083008, 126.0, 0.3017084300518036, 0.47084784507751465, -0.04450416564941406, 0.30701735615730286, 1.0009876489639282, 9.750597953796387, 996.9099731445313, 0.05047077685594559, 0.0210801400244236, 0.6267333626747131, 282.0, -6.020616666088071, -1.757013977071653, CM3323 RGB Sensor
1536635708356, 0.6087257862091064, 1.4718354940414429, 9.706093788146973, -0.1111774742603302, -0.06505715101957321, -0.03390302136540413, 45.7130012512207, 12.984999656677246, 30.003999710083008, 126.0, 0.3017084300518036, 0.47084784507751465, -0.04450416564941406, 0.30701735615730286, 1.0009876489639282, 9.750597953796387, 996.9099731445313, 0.05047077685594559, 0.0210801400244236, 0.6267333626747131, 282.0, -6.020616666088071, -1.757013977071653, K330 Gyroscope sensor
1536635708358, 0.6087257862091064, 1.4718354940414429, 9.706093788146973, -0.1111774742603302, -0.06505715101957321, -0.03390302136540413, 45.7130012512207, 12.984999656677246, 30.003999710083008, 126.0, 0.3017084300518036, 0.47084784507751465, -0.04450416564941406, 0.30701735615730286, 1.0009876489639282, 9.750597953796387, 996.9099731445313, 0.05047077685594559, 0.0210801400244236, 0.6267333626747131, 282.0, -6.020616666088071, -1.757013977071653, YAS532 Magnetic Sensor
1536635708361, 0.6087257862091064, 1.4718354940414429, 9.706093788146973, -0.1062905490398407, -0.07635815441608429, -0.04092797264456749, 45.7130012512207, 12.984999656677246, 30.003999710083008, 126.0, 0.3017084300518036, 0.47084784507751465, -0.04450416564941406, 0.30701735615730286, 1.0009876489639282, 9.750597953796387, 996.9099731445313, 0.05047077685594559, 0.0210801400244236, 0.6267333626747131, 282.0, -6.020616666088071, -1.757013977071653, K330 Gyroscope sensor
1536635708364, 0.6087257862091064, 1.4718354940414429, 9.706093788146973, -0.08796459436416626, -0.09407325088977814, -0.0455094613134861, 45.7130012512207, 12.984999656677246, 30.003999710083008, 126.0, 0.3017084300518036, 0.47084784507751465, -0.04450416564941406, 0.30701735615730286, 1.0009876489639282, 9.750597953796387, 996.9099731445313, 0.05047077685594559, 0.0210801400244236, 0.6267333626747131, 282.0, -6.020616666088071, -1.757013977071653, K330 Gyroscope sensor
1536635708366, 0.6087257862091064, 1.4718354940414429, 9.706093788146973, -0.08796459436416626, -0.09407325088977814, -0.0455094613134861, 45.35900115966797, 12.984999656677246, 30.003999710083008, 126.0, 0.3017084300518036, 0.47084784507751465, -0.04450416564941406, 0.30701735615730286, 1.0009876489639282, 9.750597953796387, 996.9099731445313, 0.05047077685594559, 0.0210801400244236, 0.6267333626747131, 282.0, -6.020616666088071, -1.757013977071653, YAS532 Magnetic Sensor
1536635708368, 0.6087257862091064, 1.4718354940414429, 9.706093788146973, -0.08032877743244171, -0.09926560521125793, -0.05803219974040985, 45.35900115966797, 12.984999656677246, 30.003999710083008, 126.0, 0.3017084300518036, 0.47084784507751465, -0.04450416564941406, 0.30701735615730286, 1.0009876489639282, 9.750597953796387, 996.9099731445313, 0.05047077685594559, 0.0210801400244236, 0.6267333626747131, 282.0, -6.020616666088071, -1.757013977071653, K330 Gyroscope sensor
1536635708375, 0.6087257862091064, 1.4718354940414429, 9.706093788146973, -0.08857546001672745, -0.08002334833145142, -0.06352998316287994, 45.35900115966797, 12.984999656677246, 30.003999710083008, 126.0, 0.3017084300518036, 0.47084784507751465, -0.04450416564941406, 0.30701735615730286, 1.0009876489639282, 9.750597953796387, 996.9099731445313, 0.05047077685594559, 0.0210801400244236, 0.6267333626747131, 282.0, -6.020616666088071, -1.757013977071653, K330 Gyroscope sensor
1536635708389, 0.6087257862091064, 1.4718354940414429, 9.706093788146973, -0.08857546001672745, -0.08002334833145142, -0.06352998316287994, 45.35900115966797, 12.984999656677246, 30.003999710083008, 126.0, 0.3017084300518036, 0.47084784507751465, -0.04450416564941406, 0.30701735615730286, 1.0009876489639282, 9.750597953796387, 996.9099731445313, 0.05047077685594559, 0.0210801400244236, 0.6267333626747131, 282.0, -6.020616666088071, -1.757013977071653, YAS532 Magnetic Sensor
1536635708393, 0.6087257862091064, 1.4718354940414429, 9.706093788146973, -0.11331550031900406, -0.06627888232469559, -0.06261368840932846, 45.35900115966797, 12.984999656677246, 30.003999710083008, 126.0, 0.3017084300518036, 0.47084784507751465, -0.04450416564941406, 0.30701735615730286, 1.0009876489639282, 9.750597953796387, 996.9099731445313, 0.05047077685594559, 0.0210801400244236, 0.6267333626747131, 282.0, -6.020616666088071, -1.757013977071653, K330 Gyroscope sensor
1536635708395, 0.6087257862091064, 1.4718354940414429, 9.706093788146973, -0.13347405195236206, -0.03756821155548096, -0.05619960278272629, 45.35900115966797, 12.984999656677246, 30.003999710083008, 126.0, 0.3017084300518036, 0.47084784507751465, -0.04450416564941406, 0.30701735615730286, 1.0009876489639282, 9.750597953796387, 996.9099731445313, 0.05047077685594559, 0.0210801400244236, 0.6267333626747131, 282.0, -6.020616666088071, -1.757013977071653, K330 Gyroscope sensor
1536635708406, 0.6087257862091064, 1.4718354940414429, 9.706093788146973, -0.13347405195236206, -0.03756821155548096, -0.05619960278272629, 45.35900115966797, 12.984999656677246, 30.003999710083008, 126.0, 0.3017084300518036, 0.47084784507751465, -0.04450416564941406, 0.30701735615730286, 1.0009876489639282, 9.750597953796387, 996.9099731445313, 0.05047077685594559, 0.0210801400244236, 0.6267333626747131, 282.0, -6.020616666088071, -1.757013977071653, YAS532 Magnetic Sensor
1536635708408, 0.6087257862091064, 1.4718354940414429, 9.706093788146973, -0.1621847152709961, -0.01038470957428217, -0.059864792972803116, 45.35900115966797, 12.984999656677246, 30.003999710083008, 126.0, 0.3017084300518036, 0.47084784507751465, -0.04450416564941406, 0.30701735615730286, 1.0009876489639282, 9.750597953796387, 996.9099731445313, 0.05047077685594559, 0.0210801400244236, 0.6267333626747131, 282.0, -6.020616666088071, -1.757013977071653, K330 Gyroscope sensor
1536635708414, 0.6087257862091064, 1.4718354940414429, 9.706093788146973, -0.20066922903060913, -6.108652451075613E-4, -0.07727445662021637, 45.35900115966797, 12.984999656677246, 30.003999710083008, 126.0, 0.3017084300518036, 0.47084784507751465, -0.04450416564941406, 0.30701735615730286, 1.0009876489639282, 9.750597953796387, 996.9099731445313, 0.05047077685594559, 0.0210801400244236, 0.6267333626747131, 282.0, -6.020616666088071, -1.757013977071653, K330 Gyroscope sensor
1536635708429, 0.6087257862091064, 1.4718354940414429, 9.706093788146973, -0.20066922903060913, -6.108652451075613E-4, -0.07727445662021637, 45.35900115966797, 12.984999656677246, 30.003999710083008, 126.0, 0.3017084300518036, 0.47084784507751465, -0.04450416564941406, 0.30701735615730286, 1.0009876489639282, 9.750597953796387, 996.9099731445313, 0.05047077685594559, 0.0210801400244236, 0.6267333626747131, 282.0, -6.020616666088071, -1.757013977071653, YAS532 Magnetic Sensor
1536635708431, 0.6087257862091064, 1.4718354940414429, 9.706093788146973, -0.24098633229732513, -3.054326225537807E-4, -0.09743300825357437, 45.35900115966797, 12.984999656677246, 30.003999710083008, 126.0, 0.3017084300518036, 0.47084784507751465, -0.04450416564941406, 0.30701735615730286, 1.0009876489639282, 9.750597953796387, 996.9099731445313, 0.05047077685594559, 0.0210801400244236, 0.6267333626747131, 282.0, -6.020616666088071, -1.757013977071653, K330 Gyroscope sensor
1536635708435, 0.6087257862091064, 1.4718354940414429, 9.706093788146973, -0.27061331272125244, 0.015577063895761967, -0.1108720451593399, 45.35900115966797, 12.984999656677246, 30.003999710083008, 126.0, 0.3017084300518036, 0.47084784507751465, -0.04450416564941406, 0.30701735615730286, 1.0009876489639282, 9.750597953796387, 996.9099731445313, 0.05047077685594559, 0.0210801400244236, 0.6267333626747131, 282.0, -6.020616666088071, -1.757013977071653, K330 Gyroscope sensor
1536635708449, 0.6087257862091064, 1.4718354940414429, 9.706093788146973, -0.27061331272125244, 0.015577063895761967, -0.1108720451593399, 45.01599884033203, 12.984999656677246, 30.003999710083008, 126.0, 0.3017084300518036, 0.47084784507751465, -0.04450416564941406, 0.30701735615730286, 1.0009876489639282, 9.750597953796387, 996.9099731445313, 0.05047077685594559, 0.0210801400244236, 0.6267333626747131, 282.0, -6.020616666088071, -1.757013977071653, YAS532 Magnetic Sensor
1536635708450, 0.6087257862091064, 1.4718354940414429, 9.706093788146973, -0.28099802136421204, 0.03634648025035858, -0.11392636597156525, 45.01599884033203, 12.984999656677246, 30.003999710083008, 126.0, 0.3017084300518036, 0.47084784507751465, -0.04450416564941406, 0.30701735615730286, 1.0009876489639282, 9.750597953796387, 996.9099731445313, 0.05047077685594559, 0.0210801400244236, 0.6267333626747131, 282.0, -6.020616666088071, -1.757013977071653, K330 Gyroscope sensor
1536635708455, 0.6087257862091064, 1.4718354940414429, 9.706093788146973, -0.27488934993743896, 0.04917465150356293, -0.11209376901388168, 45.01599884033203, 12.984999656677246, 30.003999710083008, 126.0, 0.3017084300518036, 0.47084784507751465, -0.04450416564941406, 0.30701735615730286, 1.0009876489639282, 9.750597953796387, 996.9099731445313, 0.05047077685594559, 0.0210801400244236, 0.6267333626747131, 282.0, -6.020616666088071, -1.757013977071653, K330 Gyroscope sensor
1536635708466, 0.6087257862091064, 1.4718354940414429, 9.706093788146973, -0.27488934993743896, 0.04917465150356293, -0.11209376901388168, 45.01599884033203, 12.984999656677246, 30.003999710083008, 126.0, 0.3017084300518036, 0.47084784507751465, -0.04450416564941406, 0.30701735615730286, 1.0009876489639282, 9.750597953796387, 996.9099731445313, 0.05047077685594559, 0.0210801400244236, 0.6267333626747131, 282.0, -6.020616666088071, -1.757013977071653, YAS532 Magnetic Sensor
1536635708468, 0.6087257862091064, 1.4718354940414429, 9.706093788146973, -0.2535090744495392, 0.05253441259264946, -0.10018189996480942, 45.01599884033203, 12.984999656677246, 30.003999710083008, 126.0, 0.3017084300518036, 0.47084784507751465, -0.04450416564941406, 0.30701735615730286, 1.0009876489639282, 9.750597953796387, 996.9099731445313, 0.05047077685594559, 0.0210801400244236, 0.6267333626747131, 282.0, -6.020616666088071, -1.757013977071653, K330 Gyroscope sensor
1536635708474, 0.6087257862091064, 1.4718354940414429, 9.706093788146973, -0.24373523890972137, 0.05619960278272629, -0.08521570265293121, 45.01599884033203, 12.984999656677246, 30.003999710083008, 126.0, 0.3017084300518036, 0.47084784507751465, -0.04450416564941406, 0.30701735615730286, 1.0009876489639282, 9.750597953796387, 996.9099731445313, 0.05047077685594559, 0.0210801400244236, 0.6267333626747131, 282.0, -6.020616666088071, -1.757013977071653, K330 Gyroscope sensor
1536635708517, 0.6087257862091064, 1.4718354940414429, 9.706093788146973, -0.2376265823841095, 0.05192354694008827, -0.07208210229873657, 45.01599884033203, 12.984999656677246, 30.003999710083008, 126.0, 0.3017084300518036, 0.47084784507751465, -0.04450416564941406, 0.30701735615730286, 1.0009876489639282, 9.750597953796387, 996.9099731445313, 0.05047077685594559, 0.0210801400244236, 0.6267333626747131, 282.0, -6.020616666088071, -1.757013977071653, K330 Gyroscope sensor
1536635708519, 0.6087257862091064, 1.4718354940414429, 9.706093788146973, -0.2376265823841095, 0.05192354694008827, -0.07208210229873657, 45.01599884033203, 12.984999656677246, 30.003999710083008, 126.0, 0.3017084300518036, 0.47084784507751465, -0.04450416564941406, 0.30701735615730286, 1.0009876489639282, 9.750597953796387, 996.9099731445313, 0.05047077685594559, 0.0210801400244236, 0.6267333626747131, 282.0, -6.020616666088071, -1.757013977071653, YAS532 Magnetic Sensor
1536635708521, 0.6087257862091064, 1.4718354940414429, 9.706093788146973, -0.21930062770843506, 0.0455094613134861, -0.05864306539297104, 45.01599884033203, 12.984999656677246, 30.003999710083008, 126.0, 0.3017084300518036, 0.47084784507751465, -0.04450416564941406, 0.30701735615730286, 1.0009876489639282, 9.750597953796387, 996.9099731445313, 0.05047077685594559, 0.0210801400244236, 0.6267333626747131, 282.0, -6.020616666088071, -1.757013977071653, K330 Gyroscope sensor
1536635708523, 0.6087257862091064, 1.4718354940414429, 9.706093788146973, -0.21930062770843506, 0.0455094613134861, -0.05864306539297104, 45.01599884033203, 12.984999656677246, 30.003999710083008, 126.0, 0.3017084300518036, 0.47084784507751465, -0.04450416564941406, 0.30701735615730286, 1.0009876489639282, 9.750597953796387, 996.9099731445313, 0.05047077685594559, 0.0210801400244236, 0.6267333626747131, 282.0, -6.020616666088071, -1.757013977071653, Orientation Sensor
1536635708525, 0.0071826050989329815, 1.2994530200958252, 10.27890682220459, -0.21930062770843506, 0.0455094613134861, -0.05864306539297104, 45.01599884033203, 12.984999656677246, 30.003999710083008, 126.0, 0.3017084300518036, 0.47084784507751465, -0.04450416564941406, 0.30701735615730286, 1.0009876489639282, 9.750597953796387, 996.9099731445313, 0.05047077685594559, 0.0210801400244236, 0.6267333626747131, 282.0, -6.020616666088071, -1.757013977071653, K330 3-axis Accelerometer
1536635708528, 0.0071826050989329815, 1.2994530200958252, 10.27890682220459, -0.21930062770843506, 0.0455094613134861, -0.05864306539297104, 45.01599884033203, 12.984999656677246, 30.003999710083008, 126.0, 0.3017084300518036, 0.47084784507751465, -0.04450416564941406, 0.27824047207832336, 0.6064485907554626, 9.78392505645752, 996.9099731445313, 0.05047077685594559, 0.0210801400244236, 0.6267333626747131, 282.0, -6.020616666088071, -1.757013977071653, Gravity Sensor
1536635708530, 0.0071826050989329815, 1.2994530200958252, 10.27890682220459, -0.21930062770843506, 0.0455094613134861, -0.05864306539297104, 45.01599884033203, 12.984999656677246, 30.003999710083008, 126.0, -0.2710578739643097, 0.6930044293403625, 0.4949817657470703, 0.27824047207832336, 0.6064485907554626, 9.78392505645752, 996.9099731445313, 0.05047077685594559, 0.0210801400244236, 0.6267333626747131, 282.0, -6.020616666088071, -1.757013977071653, Linear Acceleration Sensor
1536635708533, 0.0071826050989329815, 1.2994530200958252, 10.27890682220459, -0.21930062770843506, 0.0455094613134861, -0.05864306539297104, 45.01599884033203, 12.984999656677246, 30.003999710083008, 126.0, -0.2710578739643097, 0.6930044293403625, 0.4949817657470703, 0.27824047207832336, 0.6064485907554626, 9.78392505645752, 996.9099731445313, 0.035860080271959305, 0.008979822508990765, 0.6171902418136597, 283.0, -3.8676868250735152, -1.7316568997779807, Rotation Vector Sensor
1536635708537, 0.0071826050989329815, 1.2994530200958252, 10.27890682220459, -0.21930062770843506, 0.0455094613134861, -0.05864306539297104, 44.676998138427734, 12.984999656677246, 30.003999710083008, 126.0, -0.2710578739643097, 0.6930044293403625, 0.4949817657470703, 0.27824047207832336, 0.6064485907554626, 9.78392505645752, 996.9099731445313, 0.035860080271959305, 0.008979822508990765, 0.6171902418136597, 283.0, -3.8676868250735152, -1.7316568997779807, YAS532 Magnetic Sensor
1536635708539, 0.0071826050989329815, 1.2994530200958252, 10.27890682220459, -0.20341812074184418, 0.055894169956445694, -0.048258353024721146, 44.676998138427734, 12.984999656677246, 30.003999710083008, 126.0, -0.2710578739643097, 0.6930044293403625, 0.4949817657470703, 0.27824047207832336, 0.6064485907554626, 9.78392505645752, 996.9099731445313, 0.035860080271959305, 0.008979822508990765, 0.6171902418136597, 283.0, -3.8676868250735152, -1.7316568997779807, K330 Gyroscope sensor
1536635708541, 0.0071826050989329815, 1.2994530200958252, 10.27890682220459, -0.20341812074184418, 0.055894169956445694, -0.048258353024721146, 44.676998138427734, 12.984999656677246, 30.003999710083008, 126.0, -0.2710578739643097, 0.6930044293403625, 0.4949817657470703, 0.27824047207832336, 0.6064485907554626, 9.78392505645752, 996.969970703125, 0.035860080271959305, 0.008979822508990765, 0.6171902418136597, 283.0, -3.8676868250735152, -1.7316568997779807, Barometer Sensor
1536635708543, 0.0071826050989329815, 1.2994530200958252, 10.27890682220459, -0.20341812074184418, 0.055894169956445694, -0.048258353024721146, 44.676998138427734, 12.984999656677246, 30.003999710083008, 147.0, -0.2710578739643097, 0.6930044293403625, 0.4949817657470703, 0.27824047207832336, 0.6064485907554626, 9.78392505645752, 996.969970703125, 0.035860080271959305, 0.008979822508990765, 0.6171902418136597, 283.0, -3.8676868250735152, -1.7316568997779807, CM3323 RGB Sensor
1536635708546, 0.0071826050989329815, 1.2994530200958252, 10.27890682220459, -0.17928895354270935, 0.07666359096765518, -0.03848451003432274, 44.676998138427734, 12.984999656677246, 30.003999710083008, 147.0, -0.2710578739643097, 0.6930044293403625, 0.4949817657470703, 0.27824047207832336, 0.6064485907554626, 9.78392505645752, 996.969970703125, 0.035860080271959305, 0.008979822508990765, 0.6171902418136597, 283.0, -3.8676868250735152, -1.7316568997779807, K330 Gyroscope sensor
1536635708549, 0.0071826050989329815, 1.2994530200958252, 10.27890682220459, -0.17928895354270935, 0.07666359096765518, -0.03848451003432274, 44.676998138427734, 12.680999755859375, 30.363000869750977, 147.0, -0.2710578739643097, 0.6930044293403625, 0.4949817657470703, 0.27824047207832336, 0.6064485907554626, 9.78392505645752, 996.969970703125, 0.035860080271959305, 0.008979822508990765, 0.6171902418136597, 283.0, -3.8676868250735152, -1.7316568997779807, YAS532 Magnetic Sensor
1536635708551, 0.0071826050989329815, 1.2994530200958252, 10.27890682220459, -0.14935655891895294, 0.09712757170200348, -0.012522737495601177, 44.676998138427734, 12.680999755859375, 30.363000869750977, 147.0, -0.2710578739643097, 0.6930044293403625, 0.4949817657470703, 0.27824047207832336, 0.6064485907554626, 9.78392505645752, 996.969970703125, 0.035860080271959305, 0.008979822508990765, 0.6171902418136597, 283.0, -3.8676868250735152, -1.7316568997779807, K330 Gyroscope sensor
1536635708555, 0.0071826050989329815, 1.2994530200958252, 10.27890682220459, -0.13866640627384186, 0.09865473955869675, 0.004886921960860491, 44.676998138427734, 12.680999755859375, 30.363000869750977, 147.0, -0.2710578739643097, 0.6930044293403625, 0.4949817657470703, 0.27824047207832336, 0.6064485907554626, 9.78392505645752, 996.969970703125, 0.035860080271959305, 0.008979822508990765, 0.6171902418136597, 283.0, -3.8676868250735152, -1.7316568997779807, K330 Gyroscope sensor
1536635708556, 0.0071826050989329815, 1.2994530200958252, 10.27890682220459, -0.13866640627384186, 0.09865473955869675, 0.004886921960860491, 44.676998138427734, 12.680999755859375, 30.363000869750977, 147.0, -0.2710578739643097, 0.6930044293403625, 0.4949817657470703, 0.27824047207832336, 0.6064485907554626, 9.78392505645752, 996.969970703125, 0.035860080271959305, 0.008979822508990765, 0.6171902418136597, 283.0, -3.8676868250735152, -1.7316568997779807, YAS532 Magnetic Sensor
1536635708557, 0.0071826050989329815, 1.2994530200958252, 10.27890682220459, -0.12186761945486069, 0.09407325088977814, 0.03573561832308769, 44.676998138427734, 12.680999755859375, 30.363000869750977, 147.0, -0.2710578739643097, 0.6930044293403625, 0.4949817657470703, 0.27824047207832336, 0.6064485907554626, 9.78392505645752, 996.969970703125, 0.035860080271959305, 0.008979822508990765, 0.6171902418136597, 283.0, -3.8676868250735152, -1.7316568997779807, K330 Gyroscope sensor
1536635708559, 0.0071826050989329815, 1.2994530200958252, 10.27890682220459, -0.0913243517279625, 0.07208210229873657, 0.049785517156124115, 44.676998138427734, 12.680999755859375, 30.363000869750977, 147.0, -0.2710578739643097, 0.6930044293403625, 0.4949817657470703, 0.27824047207832336, 0.6064485907554626, 9.78392505645752, 996.969970703125, 0.035860080271959305, 0.008979822508990765, 0.6171902418136597, 283.0, -3.8676868250735152, -1.7316568997779807, K330 Gyroscope sensor
1536635708567, 0.0071826050989329815, 1.2994530200958252, 10.27890682220459, -0.0913243517279625, 0.07208210229873657, 0.049785517156124115, 44.316001892089844, 12.680999755859375, 30.363000869750977, 147.0, -0.2710578739643097, 0.6930044293403625, 0.4949817657470703, 0.27824047207832336, 0.6064485907554626, 9.78392505645752, 996.969970703125, 0.035860080271959305, 0.008979822508990765, 0.6171902418136597, 283.0, -3.8676868250735152, -1.7316568997779807, YAS532 Magnetic Sensor
1536635708568, 0.0071826050989329815, 1.2994530200958252, 10.27890682220459, -0.048258353024721146, 0.04092797264456749, 0.04764748737215996, 44.316001892089844, 12.680999755859375, 30.363000869750977, 147.0, -0.2710578739643097, 0.6930044293403625, 0.4949817657470703, 0.27824047207832336, 0.6064485907554626, 9.78392505645752, 996.969970703125, 0.035860080271959305, 0.008979822508990765, 0.6171902418136597, 283.0, -3.8676868250735152, -1.7316568997779807, K330 Gyroscope sensor
1536635708575, 0.0071826050989329815, 1.2994530200958252, 10.27890682220459, -0.001527163083665073, 0.01863138936460018, 0.04764748737215996, 44.316001892089844, 12.680999755859375, 30.363000869750977, 147.0, -0.2710578739643097, 0.6930044293403625, 0.4949817657470703, 0.27824047207832336, 0.6064485907554626, 9.78392505645752, 996.969970703125, 0.035860080271959305, 0.008979822508990765, 0.6171902418136597, 283.0, -3.8676868250735152, -1.7316568997779807, K330 Gyroscope sensor
1536635708587, 0.0071826050989329815, 1.2994530200958252, 10.27890682220459, -0.001527163083665073, 0.01863138936460018, 0.04764748737215996, 44.316001892089844, 12.680999755859375, 30.363000869750977, 147.0, -0.2710578739643097, 0.6930044293403625, 0.4949817657470703, 0.27824047207832336, 0.6064485907554626, 9.78392505645752, 996.969970703125, 0.035860080271959305, 0.008979822508990765, 0.6171902418136597, 283.0, -3.8676868250735152, -1.7316568997779807, YAS532 Magnetic Sensor
1536635708588, 0.0071826050989329815, 1.2994530200958252, 10.27890682220459, 0.03084869496524334, -0.002138028386980295, 0.05772676691412926, 44.316001892089844, 12.680999755859375, 30.363000869750977, 147.0, -0.2710578739643097, 0.6930044293403625, 0.4949817657470703, 0.27824047207832336, 0.6064485907554626, 9.78392505645752, 996.969970703125, 0.035860080271959305, 0.008979822508990765, 0.6171902418136597, 283.0, -3.8676868250735152, -1.7316568997779807, K330 Gyroscope sensor
1536635708593, 0.0071826050989329815, 1.2994530200958252, 10.27890682220459, 0.039095375686883926, -0.013133603148162365, 0.06627888232469559, 44.316001892089844, 12.680999755859375, 30.363000869750977, 147.0, -0.2710578739643097, 0.6930044293403625, 0.4949817657470703, 0.27824047207832336, 0.6064485907554626, 9.78392505645752, 996.969970703125, 0.035860080271959305, 0.008979822508990765, 0.6171902418136597, 283.0, -3.8676868250735152, -1.7316568997779807, K330 Gyroscope sensor
1536635708604, 0.0071826050989329815, 1.2994530200958252, 10.27890682220459, 0.039095375686883926, -0.013133603148162365, 0.06627888232469559, 44.316001892089844, 12.680999755859375, 30.363000869750977, 147.0, -0.2710578739643097, 0.6930044293403625, 0.4949817657470703, 0.27824047207832336, 0.6064485907554626, 9.78392505645752, 996.969970703125, 0.035860080271959305, 0.008979822508990765, 0.6171902418136597, 283.0, -3.8676868250735152, -1.7316568997779807, YAS532 Magnetic Sensor
1536635708605, 0.0071826050989329815, 1.2994530200958252, 10.27890682220459, 0.03237585723400116, -0.023518312722444534, 0.06750060617923737, 44.316001892089844, 12.680999755859375, 30.363000869750977, 147.0, -0.2710578739643097, 0.6930044293403625, 0.4949817657470703, 0.27824047207832336, 0.6064485907554626, 9.78392505645752, 996.969970703125, 0.035860080271959305, 0.008979822508990765, 0.6171902418136597, 283.0, -3.8676868250735152, -1.7316568997779807, K330 Gyroscope sensor
1536635708613, 0.0071826050989329815, 1.2994530200958252, 10.27890682220459, 0.01924225501716137, -0.01038470957428217, 0.06505715101957321, 44.316001892089844, 12.680999755859375, 30.363000869750977, 147.0, -0.2710578739643097, 0.6930044293403625, 0.4949817657470703, 0.27824047207832336, 0.6064485907554626, 9.78392505645752, 996.969970703125, 0.035860080271959305, 0.008979822508990765, 0.6171902418136597, 283.0, -3.8676868250735152, -1.7316568997779807, K330 Gyroscope sensor
1536635708625, 0.0071826050989329815, 1.2994530200958252, 10.27890682220459, 0.01924225501716137, -0.01038470957428217, 0.06505715101957321, 43.939998626708984, 12.680999755859375, 30.363000869750977, 147.0, -0.2710578739643097, 0.6930044293403625, 0.4949817657470703, 0.27824047207832336, 0.6064485907554626, 9.78392505645752, 996.969970703125, 0.035860080271959305, 0.008979822508990765, 0.6171902418136597, 283.0, -3.8676868250735152, -1.7316568997779807, YAS532 Magnetic Sensor
1536635708626, 0.0071826050989329815, 1.2994530200958252, 10.27890682220459, -0.02535090781748295, 0.012217304669320583, 0.05314527451992035, 43.939998626708984, 12.680999755859375, 30.363000869750977, 147.0, -0.2710578739643097, 0.6930044293403625, 0.4949817657470703, 0.27824047207832336, 0.6064485907554626, 9.78392505645752, 996.969970703125, 0.035860080271959305, 0.008979822508990765, 0.6171902418136597, 283.0, -3.8676868250735152, -1.7316568997779807, K330 Gyroscope sensor
1536635708633, 0.0071826050989329815, 1.2994530200958252, 10.27890682220459, -0.07360926270484924, 0.06322455406188965, 0.04489859566092491, 43.939998626708984, 12.680999755859375, 30.363000869750977, 147.0, -0.2710578739643097, 0.6930044293403625, 0.4949817657470703, 0.27824047207832336, 0.6064485907554626, 9.78392505645752, 996.969970703125, 0.035860080271959305, 0.008979822508990765, 0.6171902418136597, 283.0, -3.8676868250735152, -1.7316568997779807, K330 Gyroscope sensor
1536635708644, 0.0071826050989329815, 1.2994530200958252, 10.27890682220459, -0.07360926270484924, 0.06322455406188965, 0.04489859566092491, 43.939998626708984, 12.680999755859375, 30.363000869750977, 147.0, -0.2710578739643097, 0.6930044293403625, 0.4949817657470703, 0.27824047207832336, 0.6064485907554626, 9.78392505645752, 996.969970703125, 0.035860080271959305, 0.008979822508990765, 0.6171902418136597, 283.0, -3.8676868250735152, -1.7316568997779807, YAS532 Magnetic Sensor
1536635708645, 0.0071826050989329815, 1.2994530200958252, 10.27890682220459, -0.11514809727668762, 0.09193521738052368, 0.03481931984424591, 43.939998626708984, 12.680999755859375, 30.363000869750977, 147.0, -0.2710578739643097, 0.6930044293403625, 0.4949817657470703, 0.27824047207832336, 0.6064485907554626, 9.78392505645752, 996.969970703125, 0.035860080271959305, 0.008979822508990765, 0.6171902418136597, 283.0, -3.8676868250735152, -1.7316568997779807, K330 Gyroscope sensor
1536635708653, 0.0071826050989329815, 1.2994530200958252, 10.27890682220459, -0.11575896292924881, 0.08979719132184982, 0.020463986322283745, 43.939998626708984, 12.680999755859375, 30.363000869750977, 147.0, -0.2710578739643097, 0.6930044293403625, 0.4949817657470703, 0.27824047207832336, 0.6064485907554626, 9.78392505645752, 996.969970703125, 0.035860080271959305, 0.008979822508990765, 0.6171902418136597, 283.0, -3.8676868250735152, -1.7316568997779807, K330 Gyroscope sensor
1536635708664, 0.0071826050989329815, 1.2994530200958252, 10.27890682220459, -0.11575896292924881, 0.08979719132184982, 0.020463986322283745, 43.939998626708984, 12.680999755859375, 30.363000869750977, 147.0, -0.2710578739643097, 0.6930044293403625, 0.4949817657470703, 0.27824047207832336, 0.6064485907554626, 9.78392505645752, 996.969970703125, 0.035860080271959305, 0.008979822508990765, 0.6171902418136597, 283.0, -3.8676868250735152, -1.7316568997779807, YAS532 Magnetic Sensor
1536635708665, 0.0071826050989329815, 1.2994530200958252, 10.27890682220459, -0.06169738993048668, 0.054367005825042725, 0.006719517521560192, 43.939998626708984, 12.680999755859375, 30.363000869750977, 147.0, -0.2710578739643097, 0.6930044293403625, 0.4949817657470703, 0.27824047207832336, 0.6064485907554626, 9.78392505645752, 996.969970703125, 0.035860080271959305, 0.008979822508990765, 0.6171902418136597, 283.0, -3.8676868250735152, -1.7316568997779807, K330 Gyroscope sensor
1536635708677, 0.0071826050989329815, 1.2994530200958252, 10.27890682220459, 0.013133603148162365, -0.01466076634824276, -0.015271631069481373, 43.939998626708984, 12.680999755859375, 30.363000869750977, 147.0, -0.2710578739643097, 0.6930044293403625, 0.4949817657470703, 0.27824047207832336, 0.6064485907554626, 9.78392505645752, 996.969970703125, 0.035860080271959305, 0.008979822508990765, 0.6171902418136597, 283.0, -3.8676868250735152, -1.7316568997779807, K330 Gyroscope sensor
1536635708693, 0.6877344250679016, 1.7076643705368042, 10.99656867980957, 0.013133603148162365, -0.01466076634824276, -0.015271631069481373, 43.939998626708984, 12.680999755859375, 30.363000869750977, 147.0, -0.2710578739643097, 0.6930044293403625, 0.4949817657470703, 0.27824047207832336, 0.6064485907554626, 9.78392505645752, 996.969970703125, 0.035860080271959305, 0.008979822508990765, 0.6171902418136597, 283.0, -3.8676868250735152, -1.7316568997779807, K330 3-axis Accelerometer
1536635708695, 0.6877344250679016, 1.7076643705368042, 10.99656867980957, 0.013133603148162365, -0.01466076634824276, -0.015271631069481373, 43.939998626708984, 12.680999755859375, 30.363000869750977, 147.0, -0.2710578739643097, 0.6930044293403625, 0.4949817657470703, 0.20603951811790466, 0.47544965147972107, 9.792950630187988, 996.969970703125, 0.035860080271959305, 0.008979822508990765, 0.6171902418136597, 283.0, -3.8676868250735152, -1.7316568997779807, Gravity Sensor
1536635708697, 0.6877344250679016, 1.7076643705368042, 10.99656867980957, 0.013133603148162365, -0.01466076634824276, -0.015271631069481373, 43.939998626708984, 12.680999755859375, 30.363000869750977, 147.0, 0.48169490694999695, 1.2322146892547607, 1.203618049621582, 0.20603951811790466, 0.47544965147972107, 9.792950630187988, 996.969970703125, 0.035860080271959305, 0.008979822508990765, 0.6171902418136597, 283.0, -3.8676868250735152, -1.7316568997779807, Linear Acceleration Sensor
1536635708699, 0.6877344250679016, 1.7076643705368042, 10.99656867980957, 0.013133603148162365, -0.01466076634824276, -0.015271631069481373, 43.939998626708984, 12.680999755859375, 30.363000869750977, 147.0, 0.48169490694999695, 1.2322146892547607, 1.203618049621582, 0.20603951811790466, 0.47544965147972107, 9.792950630187988, 996.969970703125, 0.0247596874833107, 0.0068910326808691025, 0.612851083278656, 284.0, -2.7257739647221175, -1.1164928172513147, Rotation Vector Sensor
1536635708701, 0.6877344250679016, 1.7076643705368042, 10.99656867980957, 0.013133603148162365, -0.01466076634824276, -0.015271631069481373, 43.939998626708984, 12.680999755859375, 30.363000869750977, 147.0, 0.48169490694999695, 1.2322146892547607, 1.203618049621582, 0.20603951811790466, 0.47544965147972107, 9.792950630187988, 996.969970703125, 0.0247596874833107, 0.0068910326808691025, 0.612851083278656, 284.0, -2.7257739647221175, -1.1164928172513147, Orientation Sensor
1536635708703, 0.6877344250679016, 1.7076643705368042, 10.99656867980957, 0.09162978827953339, -0.10812314599752426, -0.040622539818286896, 43.939998626708984, 12.680999755859375, 30.363000869750977, 147.0, 0.48169490694999695, 1.2322146892547607, 1.203618049621582, 0.20603951811790466, 0.47544965147972107, 9.792950630187988, 996.969970703125, 0.0247596874833107, 0.0068910326808691025, 0.612851083278656, 284.0, -2.7257739647221175, -1.1164928172513147, K330 Gyroscope sensor
1536635708705, 0.6877344250679016, 1.7076643705368042, 10.99656867980957, 0.09162978827953339, -0.10812314599752426, -0.040622539818286896, 43.49599838256836, 12.680999755859375, 30.363000869750977, 147.0, 0.48169490694999695, 1.2322146892547607, 1.203618049621582, 0.20603951811790466, 0.47544965147972107, 9.792950630187988, 996.969970703125, 0.0247596874833107, 0.0068910326808691025, 0.612851083278656, 284.0, -2.7257739647221175, -1.1164928172513147, YAS532 Magnetic Sensor
1536635708707, 0.6877344250679016, 1.7076643705368042, 10.99656867980957, 0.09162978827953339, -0.10812314599752426, -0.040622539818286896, 43.49599838256836, 12.680999755859375, 30.363000869750977, 147.0, 0.48169490694999695, 1.2322146892547607, 1.203618049621582, 0.20603951811790466, 0.47544965147972107, 9.792950630187988, 996.9500122070313, 0.0247596874833107, 0.0068910326808691025, 0.612851083278656, 284.0, -2.7257739647221175, -1.1164928172513147, Barometer Sensor
1536635708709, 0.6877344250679016, 1.7076643705368042, 10.99656867980957, 0.09162978827953339, -0.10812314599752426, -0.040622539818286896, 43.49599838256836, 12.680999755859375, 30.363000869750977, 166.0, 0.48169490694999695, 1.2322146892547607, 1.203618049621582, 0.20603951811790466, 0.47544965147972107, 9.792950630187988, 996.9500122070313, 0.0247596874833107, 0.0068910326808691025, 0.612851083278656, 284.0, -2.7257739647221175, -1.1164928172513147, CM3323 RGB Sensor
1536635708711, 0.6877344250679016, 1.7076643705368042, 10.99656867980957, 0.12278391420841217, -0.19364428520202637, -0.05009094998240471, 43.49599838256836, 12.680999755859375, 30.363000869750977, 166.0, 0.48169490694999695, 1.2322146892547607, 1.203618049621582, 0.20603951811790466, 0.47544965147972107, 9.792950630187988, 996.9500122070313, 0.0247596874833107, 0.0068910326808691025, 0.612851083278656, 284.0, -2.7257739647221175, -1.1164928172513147, K330 Gyroscope sensor
1536635708714, 0.6877344250679016, 1.7076643705368042, 10.99656867980957, 0.12278391420841217, -0.19364428520202637, -0.05009094998240471, 43.49599838256836, 12.361000061035156, 30.363000869750977, 166.0, 0.48169490694999695, 1.2322146892547607, 1.203618049621582, 0.20603951811790466, 0.47544965147972107, 9.792950630187988, 996.9500122070313, 0.0247596874833107, 0.0068910326808691025, 0.612851083278656, 284.0, -2.7257739647221175, -1.1164928172513147, YAS532 Magnetic Sensor
1536635708717, 0.6877344250679016, 1.7076643705368042, 10.99656867980957, 0.12889257073402405, -0.21838432550430298, -0.060475658625364304, 43.49599838256836, 12.361000061035156, 30.363000869750977, 166.0, 0.48169490694999695, 1.2322146892547607, 1.203618049621582, 0.20603951811790466, 0.47544965147972107, 9.792950630187988, 996.9500122070313, 0.0247596874833107, 0.0068910326808691025, 0.612851083278656, 284.0, -2.7257739647221175, -1.1164928172513147, K330 Gyroscope sensor
1536635708719, 0.6877344250679016, 1.7076643705368042, 10.99656867980957, 0.028099801391363144, -0.21410827338695526, -0.0607810914516449, 43.49599838256836, 12.361000061035156, 30.363000869750977, 166.0, 0.48169490694999695, 1.2322146892547607, 1.203618049621582, 0.20603951811790466, 0.47544965147972107, 9.792950630187988, 996.9500122070313, 0.0247596874833107, 0.0068910326808691025, 0.612851083278656, 284.0, -2.7257739647221175, -1.1164928172513147, K330 Gyroscope sensor
1536635708728, 0.6877344250679016, 1.7076643705368042, 10.99656867980957, 0.028099801391363144, -0.21410827338695526, -0.0607810914516449, 43.17599868774414, 12.361000061035156, 30.363000869750977, 166.0, 0.48169490694999695, 1.2322146892547607, 1.203618049621582, 0.20603951811790466, 0.47544965147972107, 9.792950630187988, 996.9500122070313, 0.0247596874833107, 0.0068910326808691025, 0.612851083278656, 284.0, -2.7257739647221175, -1.1164928172513147, YAS532 Magnetic Sensor
1536635708731, 0.6877344250679016, 1.7076643705368042, 10.99656867980957, -0.12980885803699493, -0.166460782289505, -0.06169738993048668, 43.17599868774414, 12.361000061035156, 30.363000869750977, 166.0, 0.48169490694999695, 1.2322146892547607, 1.203618049621582, 0.20603951811790466, 0.47544965147972107, 9.792950630187988, 996.9500122070313, 0.0247596874833107, 0.0068910326808691025, 0.612851083278656, 284.0, -2.7257739647221175, -1.1164928172513147, K330 Gyroscope sensor
1536635708734, 0.6877344250679016, 1.7076643705368042, 10.99656867980957, -0.3017674386501312, -0.13072516024112701, -0.07635815441608429, 43.17599868774414, 12.361000061035156, 30.363000869750977, 166.0, 0.48169490694999695, 1.2322146892547607, 1.203618049621582, 0.20603951811790466, 0.47544965147972107, 9.792950630187988, 996.9500122070313, 0.0247596874833107, 0.0068910326808691025, 0.612851083278656, 284.0, -2.7257739647221175, -1.1164928172513147, K330 Gyroscope sensor
1536635708747, 0.6877344250679016, 1.7076643705368042, 10.99656867980957, -0.3017674386501312, -0.13072516024112701, -0.07635815441608429, 43.17599868774414, 12.361000061035156, 30.363000869750977, 166.0, 0.48169490694999695, 1.2322146892547607, 1.203618049621582, 0.20603951811790466, 0.47544965147972107, 9.792950630187988, 996.9500122070313, 0.0247596874833107, 0.0068910326808691025, 0.612851083278656, 284.0, -2.7257739647221175, -1.1164928172513147, YAS532 Magnetic Sensor
1536635708749, 0.6877344250679016, 1.7076643705368042, 10.99656867980957, -0.47739118337631226, -0.11759155988693237, -0.10567969083786011, 43.17599868774414, 12.361000061035156, 30.363000869750977, 166.0, 0.48169490694999695, 1.2322146892547607, 1.203618049621582, 0.20603951811790466, 0.47544965147972107, 9.792950630187988, 996.9500122070313, 0.0247596874833107, 0.0068910326808691025, 0.612851083278656, 284.0, -2.7257739647221175, -1.1164928172513147, K330 Gyroscope sensor
1536635708755, 0.6877344250679016, 1.7076643705368042, 10.99656867980957, -0.6218608021736145, -0.08796459436416626, -0.1359175145626068, 43.17599868774414, 12.361000061035156, 30.363000869750977, 166.0, 0.48169490694999695, 1.2322146892547607, 1.203618049621582, 0.20603951811790466, 0.47544965147972107, 9.792950630187988, 996.9500122070313, 0.0247596874833107, 0.0068910326808691025, 0.612851083278656, 284.0, -2.7257739647221175, -1.1164928172513147, K330 Gyroscope sensor
1536635708769, 0.6877344250679016, 1.7076643705368042, 10.99656867980957, -0.6218608021736145, -0.08796459436416626, -0.1359175145626068, 42.86399841308594, 12.361000061035156, 30.363000869750977, 166.0, 0.48169490694999695, 1.2322146892547607, 1.203618049621582, 0.20603951811790466, 0.47544965147972107, 9.792950630187988, 996.9500122070313, 0.0247596874833107, 0.0068910326808691025, 0.612851083278656, 284.0, -2.7257739647221175, -1.1164928172513147, YAS532 Magnetic Sensor
1536635708771, 0.6877344250679016, 1.7076643705368042, 10.99656867980957, -0.6673702597618103, -0.02626720629632473, -0.15729780495166779, 42.86399841308594, 12.361000061035156, 30.363000869750977, 166.0, 0.48169490694999695, 1.2322146892547607, 1.203618049621582, 0.20603951811790466, 0.47544965147972107, 9.792950630187988, 996.9500122070313, 0.0247596874833107, 0.0068910326808691025, 0.612851083278656, 284.0, -2.7257739647221175, -1.1164928172513147, K330 Gyroscope sensor
1536635708774, 0.6877344250679016, 1.7076643705368042, 10.99656867980957, -0.6731734871864319, 0.042760565876960754, -0.16004669666290283, 42.86399841308594, 12.361000061035156, 30.363000869750977, 166.0, 0.48169490694999695, 1.2322146892547607, 1.203618049621582, 0.20603951811790466, 0.47544965147972107, 9.792950630187988, 996.9500122070313, 0.0247596874833107, 0.0068910326808691025, 0.612851083278656, 284.0, -2.7257739647221175, -1.1164928172513147, K330 Gyroscope sensor
1536635708789, 0.6877344250679016, 1.7076643705368042, 10.99656867980957, -0.6731734871864319, 0.042760565876960754, -0.16004669666290283, 42.86399841308594, 12.361000061035156, 30.363000869750977, 166.0, 0.48169490694999695, 1.2322146892547607, 1.203618049621582, 0.20603951811790466, 0.47544965147972107, 9.792950630187988, 996.9500122070313, 0.0247596874833107, 0.0068910326808691025, 0.612851083278656, 284.0, -2.7257739647221175, -1.1164928172513147, YAS532 Magnetic Sensor
1536635708791, 0.6877344250679016, 1.7076643705368042, 10.99656867980957, -0.5647448897361755, 0.06627888232469559, -0.13866640627384186, 42.86399841308594, 12.361000061035156, 30.363000869750977, 166.0, 0.48169490694999695, 1.2322146892547607, 1.203618049621582, 0.20603951811790466, 0.47544965147972107, 9.792950630187988, 996.9500122070313, 0.0247596874833107, 0.0068910326808691025, 0.612851083278656, 284.0, -2.7257739647221175, -1.1164928172513147, K330 Gyroscope sensor
1536635708796, 0.6877344250679016, 1.7076643705368042, 10.99656867980957, -0.41630467772483826, 0.08429940044879913, -0.0913243517279625, 42.86399841308594, 12.361000061035156, 30.363000869750977, 166.0, 0.48169490694999695, 1.2322146892547607, 1.203618049621582, 0.20603951811790466, 0.47544965147972107, 9.792950630187988, 996.9500122070313, 0.0247596874833107, 0.0068910326808691025, 0.612851083278656, 284.0, -2.7257739647221175, -1.1164928172513147, K330 Gyroscope sensor
1536635708807, 0.6877344250679016, 1.7076643705368042, 10.99656867980957, -0.41630467772483826, 0.08429940044879913, -0.0913243517279625, 42.52899932861328, 12.034000396728516, 30.363000869750977, 166.0, 0.48169490694999695, 1.2322146892547607, 1.203618049621582, 0.20603951811790466, 0.47544965147972107, 9.792950630187988, 996.9500122070313, 0.0247596874833107, 0.0068910326808691025, 0.612851083278656, 284.0, -2.7257739647221175, -1.1164928172513147, YAS532 Magnetic Sensor
1536635708809, 0.6877344250679016, 1.7076643705368042, 10.99656867980957, -0.3032945990562439, 0.07666359096765518, -0.04153883829712868, 42.52899932861328, 12.034000396728516, 30.363000869750977, 166.0, 0.48169490694999695, 1.2322146892547607, 1.203618049621582, 0.20603951811790466, 0.47544965147972107, 9.792950630187988, 996.9500122070313, 0.0247596874833107, 0.0068910326808691025, 0.612851083278656, 284.0, -2.7257739647221175, -1.1164928172513147, K330 Gyroscope sensor
1536635708815, 0.6877344250679016, 1.7076643705368042, 10.99656867980957, -0.24068090319633484, 0.05955936014652252, -0.010690141469240189, 42.52899932861328, 12.034000396728516, 30.363000869750977, 166.0, 0.48169490694999695, 1.2322146892547607, 1.203618049621582, 0.20603951811790466, 0.47544965147972107, 9.792950630187988, 996.9500122070313, 0.0247596874833107, 0.0068910326808691025, 0.612851083278656, 284.0, -2.7257739647221175, -1.1164928172513147, K330 Gyroscope sensor
1536635708829, 0.6877344250679016, 1.7076643705368042, 10.99656867980957, -0.24068090319633484, 0.05955936014652252, -0.010690141469240189, 42.52899932861328, 12.034000396728516, 30.363000869750977, 166.0, 0.48169490694999695, 1.2322146892547607, 1.203618049621582, 0.20603951811790466, 0.47544965147972107, 9.792950630187988, 996.9500122070313, 0.0247596874833107, 0.0068910326808691025, 0.612851083278656, 284.0, -2.7257739647221175, -1.1164928172513147, YAS532 Magnetic Sensor
1536635708831, 0.6877344250679016, 1.7076643705368042, 10.99656867980957, -0.21013765037059784, 0.03481931984424591, -0.01038470957428217, 42.52899932861328, 12.034000396728516, 30.363000869750977, 166.0, 0.48169490694999695, 1.2322146892547607, 1.203618049621582, 0.20603951811790466, 0.47544965147972107, 9.792950630187988, 996.9500122070313, 0.0247596874833107, 0.0068910326808691025, 0.612851083278656, 284.0, -2.7257739647221175, -1.1164928172513147, K330 Gyroscope sensor
1536635708834, 0.6877344250679016, 1.7076643705368042, 10.99656867980957, -0.20341812074184418, -0.005497787147760391, -0.044287730008363724, 42.52899932861328, 12.034000396728516, 30.363000869750977, 166.0, 0.48169490694999695, 1.2322146892547607, 1.203618049621582, 0.20603951811790466, 0.47544965147972107, 9.792950630187988, 996.9500122070313, 0.0247596874833107, 0.0068910326808691025, 0.612851083278656, 284.0, -2.7257739647221175, -1.1164928172513147, K330 Gyroscope sensor
1536635708849, 0.6877344250679016, 1.7076643705368042, 10.99656867980957, -0.20341812074184418, -0.005497787147760391, -0.044287730008363724, 42.52899932861328, 12.034000396728516, 30.363000869750977, 166.0, 0.48169490694999695, 1.2322146892547607, 1.203618049621582, 0.20603951811790466, 0.47544965147972107, 9.792950630187988, 996.9500122070313, 0.0247596874833107, 0.0068910326808691025, 0.612851083278656, 284.0, -2.7257739647221175, -1.1164928172513147, YAS532 Magnetic Sensor
1536635708852, 0.6877344250679016, 1.7076643705368042, 10.99656867980957, -0.21533000469207764, -0.07849618047475815, -0.09743300825357437, 42.52899932861328, 12.034000396728516, 30.363000869750977, 166.0, 0.48169490694999695, 1.2322146892547607, 1.203618049621582, 0.20603951811790466, 0.47544965147972107, 9.792950630187988, 996.9500122070313, 0.0247596874833107, 0.0068910326808691025, 0.612851083278656, 284.0, -2.7257739647221175, -1.1164928172513147, K330 Gyroscope sensor
1536635708855, 0.6877344250679016, 1.7076643705368042, 10.99656867980957, -0.2825251817703247, -0.12736541032791138, -0.11759155988693237, 42.52899932861328, 12.034000396728516, 30.363000869750977, 166.0, 0.48169490694999695, 1.2322146892547607, 1.203618049621582, 0.20603951811790466, 0.47544965147972107, 9.792950630187988, 996.9500122070313, 0.0247596874833107, 0.0068910326808691025, 0.612851083278656, 284.0, -2.7257739647221175, -1.1164928172513147, K330 Gyroscope sensor
1536635708872, 0.5333084464073181, 0.5710170865058899, 7.923011779785156, -0.2825251817703247, -0.12736541032791138, -0.11759155988693237, 42.52899932861328, 12.034000396728516, 30.363000869750977, 166.0, 0.48169490694999695, 1.2322146892547607, 1.203618049621582, 0.20603951811790466, 0.47544965147972107, 9.792950630187988, 996.9500122070313, 0.0247596874833107, 0.0068910326808691025, 0.612851083278656, 284.0, -2.7257739647221175, -1.1164928172513147, K330 3-axis Accelerometer
1536635708875, 0.5333084464073181, 0.5710170865058899, 7.923011779785156, -0.2825251817703247, -0.12736541032791138, -0.11759155988693237, 42.52899932861328, 12.034000396728516, 30.363000869750977, 166.0, 0.48169490694999695, 1.2322146892547607, 1.203618049621582, 0.28054070472717285, -0.15168620645999908, 9.80146312713623, 996.9500122070313, 0.0247596874833107, 0.0068910326808691025, 0.612851083278656, 284.0, -2.7257739647221175, -1.1164928172513147, Gravity Sensor
1536635708877, 0.5333084464073181, 0.5710170865058899, 7.923011779785156, -0.2825251817703247, -0.12736541032791138, -0.11759155988693237, 42.52899932861328, 12.034000396728516, 30.363000869750977, 166.0, 0.25276774168014526, 0.7227032780647278, -1.8784513473510742, 0.28054070472717285, -0.15168620645999908, 9.80146312713623, 996.9500122070313, 0.0247596874833107, 0.0068910326808691025, 0.612851083278656, 284.0, -2.7257739647221175, -1.1164928172513147, Linear Acceleration Sensor
1536635708879, 0.5333084464073181, 0.5710170865058899, 7.923011779785156, -0.2825251817703247, -0.12736541032791138, -0.11759155988693237, 42.52899932861328, 12.034000396728516, 30.363000869750977, 166.0, 0.25276774168014526, 0.7227032780647278, -1.8784513473510742, 0.28054070472717285, -0.15168620645999908, 9.80146312713623, 996.9500122070313, 0.004994446411728859, -0.012978915125131607, 0.5994246006011963, 286.0, 0.4334780357161386, -1.5335714887289733, Rotation Vector Sensor
1536635708881, 0.5333084464073181, 0.5710170865058899, 7.923011779785156, -0.2825251817703247, -0.12736541032791138, -0.11759155988693237, 42.52899932861328, 12.034000396728516, 30.363000869750977, 166.0, 0.25276774168014526, 0.7227032780647278, -1.8784513473510742, 0.28054070472717285, -0.15168620645999908, 9.80146312713623, 996.9500122070313, 0.004994446411728859, -0.012978915125131607, 0.5994246006011963, 286.0, 0.4334780357161386, -1.5335714887289733, Orientation Sensor
1536635708884, 0.5333084464073181, 0.5710170865058899, 7.923011779785156, -0.4138612151145935, -0.12186761945486069, -0.1313360333442688, 42.52899932861328, 12.034000396728516, 30.363000869750977, 166.0, 0.25276774168014526, 0.7227032780647278, -1.8784513473510742, 0.28054070472717285, -0.15168620645999908, 9.80146312713623, 996.9500122070313, 0.004994446411728859, -0.012978915125131607, 0.5994246006011963, 286.0, 0.4334780357161386, -1.5335714887289733, K330 Gyroscope sensor
1536635708886, 0.5333084464073181, 0.5710170865058899, 7.923011779785156, -0.4138612151145935, -0.12186761945486069, -0.1313360333442688, 42.09700012207031, 12.034000396728516, 30.363000869750977, 166.0, 0.25276774168014526, 0.7227032780647278, -1.8784513473510742, 0.28054070472717285, -0.15168620645999908, 9.80146312713623, 996.9500122070313, 0.004994446411728859, -0.012978915125131607, 0.5994246006011963, 286.0, 0.4334780357161386, -1.5335714887289733, YAS532 Magnetic Sensor
1536635708888, 0.5333084464073181, 0.5710170865058899, 7.923011779785156, -0.4138612151145935, -0.12186761945486069, -0.1313360333442688, 42.09700012207031, 12.034000396728516, 30.363000869750977, 166.0, 0.25276774168014526, 0.7227032780647278, -1.8784513473510742, 0.28054070472717285, -0.15168620645999908, 9.80146312713623, 996.9000244140625, 0.004994446411728859, -0.012978915125131607, 0.5994246006011963, 286.0, 0.4334780357161386, -1.5335714887289733, Barometer Sensor
1536635708890, 0.5333084464073181, 0.5710170865058899, 7.923011779785156, -0.4138612151145935, -0.12186761945486069, -0.1313360333442688, 42.09700012207031, 12.034000396728516, 30.363000869750977, 213.0, 0.25276774168014526, 0.7227032780647278, -1.8784513473510742, 0.28054070472717285, -0.15168620645999908, 9.80146312713623, 996.9000244140625, 0.004994446411728859, -0.012978915125131607, 0.5994246006011963, 286.0, 0.4334780357161386, -1.5335714887289733, CM3323 RGB Sensor
