timestamp, acc_x, acc_y, acc_z, gyro_x, gyro_y, gyro_z, mag_x, mag_y, mag_z, light, la_x, la_y, la_z, gravity_x, gravity_y, gravity_z, pressure, rot_x, rot_y, rot_z, azimuth, pitch, roll, sensor_change
1551581875325, -1.0371246337890625, 2.673583984375, 9.360198974609375, -0.059906005859375, 0.011474609375, 0.07855224609375, -337.55645751953125, -48.92120361328125, -60.2386474609375, 100.85299682617188, 0.6154175996780396, -0.16247820854187012, 0.3278379440307617, -0.4148818254470825, 2.6028456687927246, 9.449294090270996, 994.7985229492188, 0.030696069821715355, 0.13874134421348572, 0.9111577868461609, 226.0, -16.055947663096998, 3.0652516553880877, android.sensor.light
1551581875340, 0.3115081787109375, 0.5750579833984375, 9.741500854492188, -0.059906005859375, 0.011474609375, 0.07855224609375, -337.55645751953125, -48.92120361328125, -60.2386474609375, 100.85299682617188, 0.6154175996780396, -0.16247820854187012, 0.3278379440307617, -0.4148818254470825, 2.6028456687927246, 9.449294090270996, 994.7985229492188, 0.030696069821715355, 0.13874134421348572, 0.9111577868461609, 226.0, -16.055947663096998, 3.0652516553880877, android.sensor.accelerometer
1551581875351, 0.3115081787109375, 0.5750579833984375, 9.741500854492188, -0.059906005859375, 0.011474609375, 0.07855224609375, -337.55645751953125, -48.92120361328125, -60.2386474609375, 100.85299682617188, 0.6154175996780396, -0.16247820854187012, 0.3278379440307617, -0.4148818254470825, 2.6028456687927246, 9.449294090270996, 994.7620849609375, 0.030696069821715355, 0.13874134421348572, 0.9111577868461609, 226.0, -16.055947663096998, 3.0652516553880877, android.sensor.pressure
1551581875414, 0.3115081787109375, 0.5750579833984375, 9.741500854492188, -0.059906005859375, 0.011474609375, 0.07855224609375, -347.09625244140625, -18.0511474609375, -61.52801513671875, 100.85299682617188, 0.6154175996780396, -0.16247820854187012, 0.3278379440307617, -0.4148818254470825, 2.6028456687927246, 9.449294090270996, 994.7620849609375, 0.030696069821715355, 0.13874134421348572, 0.9111577868461609, 226.0, -16.055947663096998, 3.0652516553880877, android.sensor.magnetic_field
1551581875433, 0.35089111328125, 0.6014251708984375, 9.891754150390625, -0.059906005859375, 0.011474609375, 0.07855224609375, -347.09625244140625, -18.0511474609375, -61.52801513671875, 100.85299682617188, 0.6154175996780396, -0.16247820854187012, 0.3278379440307617, -0.4148818254470825, 2.6028456687927246, 9.449294090270996, 994.7620849609375, 0.030696069821715355, 0.13874134421348572, 0.9111577868461609, 226.0, -16.055947663096998, 3.0652516553880877, android.sensor.accelerometer
1551581875433, 0.35089111328125, 0.6014251708984375, 9.891754150390625, 0.00982666015625, 0.0291595458984375, -0.0806884765625, -347.09625244140625, -18.0511474609375, -61.52801513671875, 100.85299682617188, 0.6154175996780396, -0.16247820854187012, 0.3278379440307617, -0.4148818254470825, 2.6028456687927246, 9.449294090270996, 994.7620849609375, 0.030696069821715355, 0.13874134421348572, 0.9111577868461609, 226.0, -16.055947663096998, 3.0652516553880877, android.sensor.gyroscope
1551581875451, 0.35089111328125, 0.6014251708984375, 9.891754150390625, 0.00982666015625, 0.0291595458984375, -0.0806884765625, -347.09625244140625, -18.0511474609375, -61.52801513671875, 100.85299682617188, 0.6154175996780396, -0.16247820854187012, 0.3278379440307617, -0.4148818254470825, 2.6028456687927246, 9.449294090270996, 994.7561645507812, 0.030696069821715355, 0.13874134421348572, 0.9111577868461609, 226.0, -16.055947663096998, 3.0652516553880877, android.sensor.pressure
1551581875510, 0.35089111328125, 0.6014251708984375, 9.891754150390625, 0.00982666015625, 0.0291595458984375, -0.0806884765625, -347.0672607421875, -18.4112548828125, -61.2884521484375, 100.85299682617188, 0.6154175996780396, -0.16247820854187012, 0.3278379440307617, -0.4148818254470825, 2.6028456687927246, 9.449294090270996, 994.7561645507812, 0.030696069821715355, 0.13874134421348572, 0.9111577868461609, 226.0, -16.055947663096998, 3.0652516553880877, android.sensor.magnetic_field
1551581875532, 0.0825347900390625, 0.5643768310546875, 9.800872802734375, 0.00982666015625, 0.0291595458984375, -0.0806884765625, -347.0672607421875, -18.4112548828125, -61.2884521484375, 100.85299682617188, 0.6154175996780396, -0.16247820854187012, 0.3278379440307617, -0.4148818254470825, 2.6028456687927246, 9.449294090270996, 994.7561645507812, 0.030696069821715355, 0.13874134421348572, 0.9111577868461609, 226.0, -16.055947663096998, 3.0652516553880877, android.sensor.accelerometer
1551581875532, 0.0825347900390625, 0.5643768310546875, 9.800872802734375, 0.038330078125, 0.0524749755859375, -0.0563507080078125, -347.0672607421875, -18.4112548828125, -61.2884521484375, 100.85299682617188, 0.6154175996780396, -0.16247820854187012, 0.3278379440307617, -0.4148818254470825, 2.6028456687927246, 9.449294090270996, 994.7561645507812, 0.030696069821715355, 0.13874134421348572, 0.9111577868461609, 226.0, -16.055947663096998, 3.0652516553880877, android.sensor.gyroscope
1551581875551, 0.0825347900390625, 0.5643768310546875, 9.800872802734375, 0.038330078125, 0.0524749755859375, -0.0563507080078125, -347.0672607421875, -18.4112548828125, -61.2884521484375, 100.85299682617188, 0.6154175996780396, -0.16247820854187012, 0.3278379440307617, -0.4148818254470825, 2.6028456687927246, 9.449294090270996, 994.7561645507812, 0.030696069821715355, 0.13874134421348572, 0.9111577868461609, 226.0, -16.055947663096998, 3.0652516553880877, android.sensor.pressure
1551581875608, 0.0825347900390625, 0.5643768310546875, 9.800872802734375, 0.038330078125, 0.0524749755859375, -0.0563507080078125, -347.186279296875, -18.98040771484375, -60.98785400390625, 100.85299682617188, 0.6154175996780396, -0.16247820854187012, 0.3278379440307617, -0.4148818254470825, 2.6028456687927246, 9.449294090270996, 994.7561645507812, 0.030696069821715355, 0.13874134421348572, 0.9111577868461609, 226.0, -16.055947663096998, 3.0652516553880877, android.sensor.magnetic_field
1551581875631, 0.157989501953125, 0.6009368896484375, 9.686203002929688, 0.038330078125, 0.0524749755859375, -0.0563507080078125, -347.186279296875, -18.98040771484375, -60.98785400390625, 100.85299682617188, 0.6154175996780396, -0.16247820854187012, 0.3278379440307617, -0.4148818254470825, 2.6028456687927246, 9.449294090270996, 994.7561645507812, 0.030696069821715355, 0.13874134421348572, 0.9111577868461609, 226.0, -16.055947663096998, 3.0652516553880877, android.sensor.accelerometer
1551581875631, 0.157989501953125, 0.6009368896484375, 9.686203002929688, -0.001434326171875, 0.03704833984375, 0.0167083740234375, -347.186279296875, -18.98040771484375, -60.98785400390625, 100.85299682617188, 0.6154175996780396, -0.16247820854187012, 0.3278379440307617, -0.4148818254470825, 2.6028456687927246, 9.449294090270996, 994.7561645507812, 0.030696069821715355, 0.13874134421348572, 0.9111577868461609, 226.0, -16.055947663096998, 3.0652516553880877, android.sensor.gyroscope
1551581875652, 0.157989501953125, 0.6009368896484375, 9.686203002929688, -0.001434326171875, 0.03704833984375, 0.0167083740234375, -347.186279296875, -18.98040771484375, -60.98785400390625, 100.85299682617188, 0.6154175996780396, -0.16247820854187012, 0.3278379440307617, -0.4148818254470825, 2.6028456687927246, 9.449294090270996, 994.7572021484375, 0.030696069821715355, 0.13874134421348572, 0.9111577868461609, 226.0, -16.055947663096998, 3.0652516553880877, android.sensor.pressure
1551581875709, 0.157989501953125, 0.6009368896484375, 9.686203002929688, -0.001434326171875, 0.03704833984375, 0.0167083740234375, -347.515869140625, -19.1009521484375, -61.52801513671875, 100.85299682617188, 0.6154175996780396, -0.16247820854187012, 0.3278379440307617, -0.4148818254470825, 2.6028456687927246, 9.449294090270996, 994.7572021484375, 0.030696069821715355, 0.13874134421348572, 0.9111577868461609, 226.0, -16.055947663096998, 3.0652516553880877, android.sensor.magnetic_field
1551581875728, 0.007537841796875, 0.56414794921875, 9.879241943359375, -0.001434326171875, 0.03704833984375, 0.0167083740234375, -347.515869140625, -19.1009521484375, -61.52801513671875, 100.85299682617188, 0.6154175996780396, -0.16247820854187012, 0.3278379440307617, -0.4148818254470825, 2.6028456687927246, 9.449294090270996, 994.7572021484375, 0.030696069821715355, 0.13874134421348572, 0.9111577868461609, 226.0, -16.055947663096998, 3.0652516553880877, android.sensor.accelerometer
1551581875728, 0.007537841796875, 0.56414794921875, 9.879241943359375, -0.02764892578125, 0.081268310546875, 0.0079193115234375, -347.515869140625, -19.1009521484375, -61.52801513671875, 100.85299682617188, 0.6154175996780396, -0.16247820854187012, 0.3278379440307617, -0.4148818254470825, 2.6028456687927246, 9.449294090270996, 994.7572021484375, 0.030696069821715355, 0.13874134421348572, 0.9111577868461609, 226.0, -16.055947663096998, 3.0652516553880877, android.sensor.gyroscope
1551581875755, 0.007537841796875, 0.56414794921875, 9.879241943359375, -0.02764892578125, 0.081268310546875, 0.0079193115234375, -347.515869140625, -19.1009521484375, -61.52801513671875, 100.85299682617188, 0.6154175996780396, -0.16247820854187012, 0.3278379440307617, -0.4148818254470825, 2.6028456687927246, 9.449294090270996, 994.7572021484375, 0.030696069821715355, 0.13874134421348572, 0.9111577868461609, 226.0, -16.055947663096998, 3.0652516553880877, android.sensor.pressure
1551581875806, 0.007537841796875, 0.56414794921875, 9.879241943359375, -0.02764892578125, 0.081268310546875, 0.0079193115234375, -346.73614501953125, -18.560791015625, -61.1083984375, 100.85299682617188, 0.6154175996780396, -0.16247820854187012, 0.3278379440307617, -0.4148818254470825, 2.6028456687927246, 9.449294090270996, 994.7572021484375, 0.030696069821715355, 0.13874134421348572, 0.9111577868461609, 226.0, -16.055947663096998, 3.0652516553880877, android.sensor.magnetic_field
1551581875827, -0.02618408203125, 0.6486663818359375, 9.852325439453125, -0.02764892578125, 0.081268310546875, 0.0079193115234375, -346.73614501953125, -18.560791015625, -61.1083984375, 100.85299682617188, 0.6154175996780396, -0.16247820854187012, 0.3278379440307617, -0.4148818254470825, 2.6028456687927246, 9.449294090270996, 994.7572021484375, 0.030696069821715355, 0.13874134421348572, 0.9111577868461609, 226.0, -16.055947663096998, 3.0652516553880877, android.sensor.accelerometer
1551581875827, -0.02618408203125, 0.6486663818359375, 9.852325439453125, 0.047576904296875, 0.0277862548828125, 4.2724609375E-4, -346.73614501953125, -18.560791015625, -61.1083984375, 100.85299682617188, 0.6154175996780396, -0.16247820854187012, 0.3278379440307617, -0.4148818254470825, 2.6028456687927246, 9.449294090270996, 994.7572021484375, 0.030696069821715355, 0.13874134421348572, 0.9111577868461609, 226.0, -16.055947663096998, 3.0652516553880877, android.sensor.gyroscope
1551581875853, -0.02618408203125, 0.6486663818359375, 9.852325439453125, 0.047576904296875, 0.0277862548828125, 4.2724609375E-4, -346.73614501953125, -18.560791015625, -61.1083984375, 100.85299682617188, 0.6154175996780396, -0.16247820854187012, 0.3278379440307617, -0.4148818254470825, 2.6028456687927246, 9.449294090270996, 994.7551879882812, 0.030696069821715355, 0.13874134421348572, 0.9111577868461609, 226.0, -16.055947663096998, 3.0652516553880877, android.sensor.pressure
1551581875906, -0.02618408203125, 0.6486663818359375, 9.852325439453125, 0.047576904296875, 0.0277862548828125, 4.2724609375E-4, -346.25701904296875, -18.9208984375, -61.407470703125, 100.85299682617188, 0.6154175996780396, -0.16247820854187012, 0.3278379440307617, -0.4148818254470825, 2.6028456687927246, 9.449294090270996, 994.7551879882812, 0.030696069821715355, 0.13874134421348572, 0.9111577868461609, 226.0, -16.055947663096998, 3.0652516553880877, android.sensor.magnetic_field
1551581875924, 0.1351165771484375, 0.509063720703125, 9.804718017578125, 0.047576904296875, 0.0277862548828125, 4.2724609375E-4, -346.25701904296875, -18.9208984375, -61.407470703125, 100.85299682617188, 0.6154175996780396, -0.16247820854187012, 0.3278379440307617, -0.4148818254470825, 2.6028456687927246, 9.449294090270996, 994.7551879882812, 0.030696069821715355, 0.13874134421348572, 0.9111577868461609, 226.0, -16.055947663096998, 3.0652516553880877, android.sensor.accelerometer
1551581875925, 0.1351165771484375, 0.509063720703125, 9.804718017578125, -3.96728515625E-4, 0.002838134765625, -0.007232666015625, -346.25701904296875, -18.9208984375, -61.407470703125, 100.85299682617188, 0.6154175996780396, -0.16247820854187012, 0.3278379440307617, -0.4148818254470825, 2.6028456687927246, 9.449294090270996, 994.7551879882812, 0.030696069821715355, 0.13874134421348572, 0.9111577868461609, 226.0, -16.055947663096998, 3.0652516553880877, android.sensor.gyroscope
1551581875954, 0.1351165771484375, 0.509063720703125, 9.804718017578125, -3.96728515625E-4, 0.002838134765625, -0.007232666015625, -346.25701904296875, -18.9208984375, -61.407470703125, 100.85299682617188, 0.6154175996780396, -0.16247820854187012, 0.3278379440307617, -0.4148818254470825, 2.6028456687927246, 9.449294090270996, 994.75830078125, 0.030696069821715355, 0.13874134421348572, 0.9111577868461609, 226.0, -16.055947663096998, 3.0652516553880877, android.sensor.pressure
1551581876001, 0.1351165771484375, 0.509063720703125, 9.804718017578125, -3.96728515625E-4, 0.002838134765625, -0.007232666015625, -346.6461181640625, -19.52056884765625, -60.9283447265625, 100.85299682617188, 0.6154175996780396, -0.16247820854187012, 0.3278379440307617, -0.4148818254470825, 2.6028456687927246, 9.449294090270996, 994.75830078125, 0.030696069821715355, 0.13874134421348572, 0.9111577868461609, 226.0, -16.055947663096998, 3.0652516553880877, android.sensor.magnetic_field
1551581876023, 0.092681884765625, 0.7595367431640625, 9.79486083984375, -3.96728515625E-4, 0.002838134765625, -0.007232666015625, -346.6461181640625, -19.52056884765625, -60.9283447265625, 100.85299682617188, 0.6154175996780396, -0.16247820854187012, 0.3278379440307617, -0.4148818254470825, 2.6028456687927246, 9.449294090270996, 994.75830078125, 0.030696069821715355, 0.13874134421348572, 0.9111577868461609, 226.0, -16.055947663096998, 3.0652516553880877, android.sensor.accelerometer
1551581876023, 0.092681884765625, 0.7595367431640625, 9.79486083984375, -6.40869140625E-4, -0.0126495361328125, 0.0230865478515625, -346.6461181640625, -19.52056884765625, -60.9283447265625, 100.85299682617188, 0.6154175996780396, -0.16247820854187012, 0.3278379440307617, -0.4148818254470825, 2.6028456687927246, 9.449294090270996, 994.75830078125, 0.030696069821715355, 0.13874134421348572, 0.9111577868461609, 226.0, -16.055947663096998, 3.0652516553880877, android.sensor.gyroscope
1551581876024, 0.092681884765625, 0.7595367431640625, 9.79486083984375, -6.40869140625E-4, -0.0126495361328125, 0.0230865478515625, -346.6461181640625, -19.52056884765625, -60.9283447265625, 100.85299682617188, 0.6154175996780396, -0.16247820854187012, 0.3278379440307617, 0.2072550356388092, 0.5753238797187805, 9.790922164916992, 994.75830078125, 0.030696069821715355, 0.13874134421348572, 0.9111577868461609, 226.0, -16.055947663096998, 3.0652516553880877, android.sensor.gravity
1551581876035, 0.092681884765625, 0.7595367431640625, 9.79486083984375, -6.40869140625E-4, -0.0126495361328125, 0.0230865478515625, -346.6461181640625, -19.52056884765625, -60.9283447265625, 100.85299682617188, 0.009968295693397522, -0.1826980710029602, -0.1255645751953125, 0.2072550356388092, 0.5753238797187805, 9.790922164916992, 994.75830078125, 0.030696069821715355, 0.13874134421348572, 0.9111577868461609, 226.0, -16.055947663096998, 3.0652516553880877, android.sensor.linear_acceleration
1551581876047, 0.092681884765625, 0.7595367431640625, 9.79486083984375, -6.40869140625E-4, -0.0126495361328125, 0.0230865478515625, -346.6461181640625, -19.52056884765625, -60.9283447265625, 100.85299682617188, 0.009968295693397522, -0.1826980710029602, -0.1255645751953125, 0.2072550356388092, 0.5753238797187805, 9.790922164916992, 994.75830078125, 0.013357638381421566, -0.029089126735925674, -0.7219247221946716, 92.0, -3.466603816301792, -1.2013829972895818, android.sensor.rotation_vector
1551581876048, 0.092681884765625, 0.7595367431640625, 9.79486083984375, -6.40869140625E-4, -0.0126495361328125, 0.0230865478515625, -346.6461181640625, -19.52056884765625, -60.9283447265625, 100.85299682617188, 0.009968295693397522, -0.1826980710029602, -0.1255645751953125, 0.2072550356388092, 0.5753238797187805, 9.790922164916992, 994.75830078125, 0.013357638381421566, -0.029089126735925674, -0.7219247221946716, 92.0, -3.466603816301792, -1.2013829972895818, android.sensor.orientation
1551581876054, 0.092681884765625, 0.7595367431640625, 9.79486083984375, -6.40869140625E-4, -0.0126495361328125, 0.0230865478515625, -346.6461181640625, -19.52056884765625, -60.9283447265625, 100.85299682617188, 0.009968295693397522, -0.1826980710029602, -0.1255645751953125, 0.2072550356388092, 0.5753238797187805, 9.790922164916992, 994.75830078125, 0.013357638381421566, -0.029089126735925674, -0.7219247221946716, 92.0, -3.466603816301792, -1.2013829972895818, android.sensor.pressure
1551581876097, 0.092681884765625, 0.7595367431640625, 9.79486083984375, -6.40869140625E-4, -0.0126495361328125, 0.0230865478515625, -346.07696533203125, -19.01092529296875, -61.407470703125, 100.85299682617188, 0.009968295693397522, -0.1826980710029602, -0.1255645751953125, 0.2072550356388092, 0.5753238797187805, 9.790922164916992, 994.75830078125, 0.013357638381421566, -0.029089126735925674, -0.7219247221946716, 92.0, -3.466603816301792, -1.2013829972895818, android.sensor.magnetic_field
1551581876117, 0.2589263916015625, 0.8673248291015625, 9.915313720703125, -6.40869140625E-4, -0.0126495361328125, 0.0230865478515625, -346.07696533203125, -19.01092529296875, -61.407470703125, 100.85299682617188, 0.009968295693397522, -0.1826980710029602, -0.1255645751953125, 0.2072550356388092, 0.5753238797187805, 9.790922164916992, 994.75830078125, 0.013357638381421566, -0.029089126735925674, -0.7219247221946716, 92.0, -3.466603816301792, -1.2013829972895818, android.sensor.accelerometer
1551581876117, 0.2589263916015625, 0.8673248291015625, 9.915313720703125, -6.40869140625E-4, -0.0126495361328125, 0.0230865478515625, -346.07696533203125, -19.01092529296875, -61.407470703125, 100.85299682617188, 0.009968295693397522, -0.1826980710029602, -0.1255645751953125, 0.24966038763523102, 0.5593610405921936, 9.790857315063477, 994.75830078125, 0.013357638381421566, -0.029089126735925674, -0.7219247221946716, 92.0, -3.466603816301792, -1.2013829972895818, android.sensor.gravity
1551581876117, 0.2589263916015625, 0.8673248291015625, 9.915313720703125, -0.0121612548828125, -0.0525970458984375, -0.0489501953125, -346.07696533203125, -19.01092529296875, -61.407470703125, 100.85299682617188, 0.009968295693397522, -0.1826980710029602, -0.1255645751953125, 0.24966038763523102, 0.5593610405921936, 9.790857315063477, 994.75830078125, 0.013357638381421566, -0.029089126735925674, -0.7219247221946716, 92.0, -3.466603816301792, -1.2013829972895818, android.sensor.gyroscope
1551581876131, 0.2589263916015625, 0.8673248291015625, 9.915313720703125, -0.0121612548828125, -0.0525970458984375, -0.0489501953125, -346.07696533203125, -19.01092529296875, -61.407470703125, 100.85299682617188, -0.07844007015228271, -0.22562283277511597, -0.26276588439941406, 0.24966038763523102, 0.5593610405921936, 9.790857315063477, 994.75830078125, 0.013357638381421566, -0.029089126735925674, -0.7219247221946716, 92.0, -3.466603816301792, -1.2013829972895818, android.sensor.linear_acceleration
1551581876141, 0.2589263916015625, 0.8673248291015625, 9.915313720703125, -0.0121612548828125, -0.0525970458984375, -0.0489501953125, -346.07696533203125, -19.01092529296875, -61.407470703125, 100.85299682617188, -0.07844007015228271, -0.22562283277511597, -0.26276588439941406, 0.24966038763523102, 0.5593610405921936, 9.790857315063477, 994.75830078125, 0.01127266138792038, -0.03173854574561119, -0.7239693999290466, 92.0, -3.525307584670759, -1.5738936172158493, android.sensor.rotation_vector
1551581876141, 0.2589263916015625, 0.8673248291015625, 9.915313720703125, -0.0121612548828125, -0.0525970458984375, -0.0489501953125, -346.07696533203125, -19.01092529296875, -61.407470703125, 100.85299682617188, -0.07844007015228271, -0.22562283277511597, -0.26276588439941406, 0.24966038763523102, 0.5593610405921936, 9.790857315063477, 994.75830078125, 0.01127266138792038, -0.03173854574561119, -0.7239693999290466, 92.0, -3.525307584670759, -1.5738936172158493, android.sensor.orientation
1551581876155, 0.2589263916015625, 0.8673248291015625, 9.915313720703125, -0.0121612548828125, -0.0525970458984375, -0.0489501953125, -346.07696533203125, -19.01092529296875, -61.407470703125, 100.85299682617188, -0.07844007015228271, -0.22562283277511597, -0.26276588439941406, 0.24966038763523102, 0.5593610405921936, 9.790857315063477, 994.746337890625, 0.01127266138792038, -0.03173854574561119, -0.7239693999290466, 92.0, -3.525307584670759, -1.5738936172158493, android.sensor.pressure
1551581876199, 0.2589263916015625, 0.8673248291015625, 9.915313720703125, -0.0121612548828125, -0.0525970458984375, -0.0489501953125, -346.43707275390625, -19.73114013671875, -61.19842529296875, 100.85299682617188, -0.07844007015228271, -0.22562283277511597, -0.26276588439941406, 0.24966038763523102, 0.5593610405921936, 9.790857315063477, 994.746337890625, 0.01127266138792038, -0.03173854574561119, -0.7239693999290466, 92.0, -3.525307584670759, -1.5738936172158493, android.sensor.magnetic_field
1551581876218, 0.2589263916015625, 0.8673248291015625, 9.915313720703125, -0.0121612548828125, -0.0525970458984375, -0.0489501953125, -346.43707275390625, -19.73114013671875, -61.19842529296875, 100.85299682617188, -0.07844007015228271, -0.22562283277511597, -0.26276588439941406, 0.2585647702217102, 0.5560098886489868, 9.790817260742188, 994.746337890625, 0.01127266138792038, -0.03173854574561119, -0.7239693999290466, 92.0, -3.525307584670759, -1.5738936172158493, android.sensor.gravity
1551581876219, 0.1002197265625, 0.8210296630859375, 9.675872802734375, -0.0121612548828125, -0.0525970458984375, -0.0489501953125, -346.43707275390625, -19.73114013671875, -61.19842529296875, 100.85299682617188, -0.07844007015228271, -0.22562283277511597, -0.26276588439941406, 0.2585647702217102, 0.5560098886489868, 9.790817260742188, 994.746337890625, 0.01127266138792038, -0.03173854574561119, -0.7239693999290466, 92.0, -3.525307584670759, -1.5738936172158493, android.sensor.accelerometer
1551581876219, 0.1002197265625, 0.8210296630859375, 9.675872802734375, -0.0148773193359375, -0.00433349609375, -0.0853271484375, -346.43707275390625, -19.73114013671875, -61.19842529296875, 100.85299682617188, -0.07844007015228271, -0.22562283277511597, -0.26276588439941406, 0.2585647702217102, 0.5560098886489868, 9.790817260742188, 994.746337890625, 0.01127266138792038, -0.03173854574561119, -0.7239693999290466, 92.0, -3.525307584670759, -1.5738936172158493, android.sensor.gyroscope
1551581876232, 0.1002197265625, 0.8210296630859375, 9.675872802734375, -0.0148773193359375, -0.00433349609375, -0.0853271484375, -346.43707275390625, -19.73114013671875, -61.19842529296875, 100.85299682617188, 0.09631551802158356, -0.2397889494895935, 0.12466907501220703, 0.2585647702217102, 0.5560098886489868, 9.790817260742188, 994.746337890625, 0.01127266138792038, -0.03173854574561119, -0.7239693999290466, 92.0, -3.525307584670759, -1.5738936172158493, android.sensor.linear_acceleration
1551581876241, 0.1002197265625, 0.8210296630859375, 9.675872802734375, -0.0148773193359375, -0.00433349609375, -0.0853271484375, -346.43707275390625, -19.73114013671875, -61.19842529296875, 100.85299682617188, 0.09631551802158356, -0.2397889494895935, 0.12466907501220703, 0.2585647702217102, 0.5560098886489868, 9.790817260742188, 994.746337890625, 0.010786432772874832, -0.029376186430454254, -0.7270384430885315, 93.0, -3.2969967722754467, -1.4127000855864906, android.sensor.rotation_vector
1551581876241, 0.1002197265625, 0.8210296630859375, 9.675872802734375, -0.0148773193359375, -0.00433349609375, -0.0853271484375, -346.43707275390625, -19.73114013671875, -61.19842529296875, 100.85299682617188, 0.09631551802158356, -0.2397889494895935, 0.12466907501220703, 0.2585647702217102, 0.5560098886489868, 9.790817260742188, 994.746337890625, 0.010786432772874832, -0.029376186430454254, -0.7270384430885315, 93.0, -3.2969967722754467, -1.4127000855864906, android.sensor.orientation
1551581876255, 0.1002197265625, 0.8210296630859375, 9.675872802734375, -0.0148773193359375, -0.00433349609375, -0.0853271484375, -346.43707275390625, -19.73114013671875, -61.19842529296875, 100.85299682617188, 0.09631551802158356, -0.2397889494895935, 0.12466907501220703, 0.2585647702217102, 0.5560098886489868, 9.790817260742188, 994.746337890625, 0.010786432772874832, -0.029376186430454254, -0.7270384430885315, 93.0, -3.2969967722754467, -1.4127000855864906, android.sensor.pressure
1551581876295, 0.1002197265625, 0.8210296630859375, 9.675872802734375, -0.0148773193359375, -0.00433349609375, -0.0853271484375, -348.14605712890625, -19.580078125, -61.16790771484375, 100.85299682617188, 0.09631551802158356, -0.2397889494895935, 0.12466907501220703, 0.2585647702217102, 0.5560098886489868, 9.790817260742188, 994.746337890625, 0.010786432772874832, -0.029376186430454254, -0.7270384430885315, 93.0, -3.2969967722754467, -1.4127000855864906, android.sensor.magnetic_field
1551581876315, 0.0205230712890625, 0.73626708984375, 9.097183227539062, -0.0148773193359375, -0.00433349609375, -0.0853271484375, -348.14605712890625, -19.580078125, -61.16790771484375, 100.85299682617188, 0.09631551802158356, -0.2397889494895935, 0.12466907501220703, 0.2585647702217102, 0.5560098886489868, 9.790817260742188, 994.746337890625, 0.010786432772874832, -0.029376186430454254, -0.7270384430885315, 93.0, -3.2969967722754467, -1.4127000855864906, android.sensor.accelerometer
1551581876316, 0.0205230712890625, 0.73626708984375, 9.097183227539062, -0.0672454833984375, 0.06292724609375, -0.107269287109375, -348.14605712890625, -19.580078125, -61.16790771484375, 100.85299682617188, 0.09631551802158356, -0.2397889494895935, 0.12466907501220703, 0.2585647702217102, 0.5560098886489868, 9.790817260742188, 994.746337890625, 0.010786432772874832, -0.029376186430454254, -0.7270384430885315, 93.0, -3.2969967722754467, -1.4127000855864906, android.sensor.gyroscope
1551581876316, 0.0205230712890625, 0.73626708984375, 9.097183227539062, -0.0672454833984375, 0.06292724609375, -0.107269287109375, -348.14605712890625, -19.580078125, -61.16790771484375, 100.85299682617188, 0.09631551802158356, -0.2397889494895935, 0.12466907501220703, 0.19805258512496948, 0.48961371183395386, 9.795772552490234, 994.746337890625, 0.010786432772874832, -0.029376186430454254, -0.7270384430885315, 93.0, -3.2969967722754467, -1.4127000855864906, android.sensor.gravity
1551581876330, 0.0205230712890625, 0.73626708984375, 9.097183227539062, -0.0672454833984375, 0.06292724609375, -0.107269287109375, -348.14605712890625, -19.580078125, -61.16790771484375, 100.85299682617188, 0.03351914882659912, -0.1706087589263916, 0.6109523773193359, 0.19805258512496948, 0.48961371183395386, 9.795772552490234, 994.746337890625, 0.010786432772874832, -0.029376186430454254, -0.7270384430885315, 93.0, -3.2969967722754467, -1.4127000855864906, android.sensor.linear_acceleration
1551581876338, 0.0205230712890625, 0.73626708984375, 9.097183227539062, -0.0672454833984375, 0.06292724609375, -0.107269287109375, -348.14605712890625, -19.580078125, -61.16790771484375, 100.85299682617188, 0.03351914882659912, -0.1706087589263916, 0.6109523773193359, 0.19805258512496948, 0.48961371183395386, 9.795772552490234, 994.746337890625, 0.012892031110823154, -0.02440950833261013, -0.730228066444397, 93.0, -3.052466608478882, -0.8318744589469462, android.sensor.rotation_vector
1551581876339, 0.0205230712890625, 0.73626708984375, 9.097183227539062, -0.0672454833984375, 0.06292724609375, -0.107269287109375, -348.14605712890625, -19.580078125, -61.16790771484375, 100.85299682617188, 0.03351914882659912, -0.1706087589263916, 0.6109523773193359, 0.19805258512496948, 0.48961371183395386, 9.795772552490234, 994.746337890625, 0.012892031110823154, -0.02440950833261013, -0.730228066444397, 93.0, -3.052466608478882, -0.8318744589469462, android.sensor.orientation
1551581876355, 0.0205230712890625, 0.73626708984375, 9.097183227539062, -0.0672454833984375, 0.06292724609375, -0.107269287109375, -348.14605712890625, -19.580078125, -61.16790771484375, 100.85299682617188, 0.03351914882659912, -0.1706087589263916, 0.6109523773193359, 0.19805258512496948, 0.48961371183395386, 9.795772552490234, 994.7369995117188, 0.012892031110823154, -0.02440950833261013, -0.730228066444397, 93.0, -3.052466608478882, -0.8318744589469462, android.sensor.pressure
1551581876392, 0.0205230712890625, 0.73626708984375, 9.097183227539062, -0.0672454833984375, 0.06292724609375, -0.107269287109375, -346.76666259765625, -18.65081787109375, -62.78839111328125, 100.85299682617188, 0.03351914882659912, -0.1706087589263916, 0.6109523773193359, 0.19805258512496948, 0.48961371183395386, 9.795772552490234, 994.7369995117188, 0.012892031110823154, -0.02440950833261013, -0.730228066444397, 93.0, -3.052466608478882, -0.8318744589469462, android.sensor.magnetic_field
1551581876413, 0.0205230712890625, 0.73626708984375, 9.097183227539062, -0.0672454833984375, 0.06292724609375, -0.107269287109375, -346.76666259765625, -18.65081787109375, -62.78839111328125, 100.85299682617188, 0.03351914882659912, -0.1706087589263916, 0.6109523773193359, -0.09163808077573776, 0.5030764937400818, 9.796664237976074, 994.7369995117188, 0.012892031110823154, -0.02440950833261013, -0.730228066444397, 93.0, -3.052466608478882, -0.8318744589469462, android.sensor.gravity
1551581876413, 0.0469207763671875, 0.8262481689453125, 10.266326904296875, -0.0672454833984375, 0.06292724609375, -0.107269287109375, -346.76666259765625, -18.65081787109375, -62.78839111328125, 100.85299682617188, 0.03351914882659912, -0.1706087589263916, 0.6109523773193359, -0.09163808077573776, 0.5030764937400818, 9.796664237976074, 994.7369995117188, 0.012892031110823154, -0.02440950833261013, -0.730228066444397, 93.0, -3.052466608478882, -0.8318744589469462, android.sensor.accelerometer
1551581876413, 0.0469207763671875, 0.8262481689453125, 10.266326904296875, 0.0218505859375, 0.319854736328125, 0.0025634765625, -346.76666259765625, -18.65081787109375, -62.78839111328125, 100.85299682617188, 0.03351914882659912, -0.1706087589263916, 0.6109523773193359, -0.09163808077573776, 0.5030764937400818, 9.796664237976074, 994.7369995117188, 0.012892031110823154, -0.02440950833261013, -0.730228066444397, 93.0, -3.052466608478882, -0.8318744589469462, android.sensor.gyroscope
1551581876429, 0.0469207763671875, 0.8262481689453125, 10.266326904296875, 0.0218505859375, 0.319854736328125, 0.0025634765625, -346.76666259765625, -18.65081787109375, -62.78839111328125, 100.85299682617188, -0.2226668745279312, -0.16413652896881104, -1.0151567459106445, -0.09163808077573776, 0.5030764937400818, 9.796664237976074, 994.7369995117188, 0.012892031110823154, -0.02440950833261013, -0.730228066444397, 93.0, -3.052466608478882, -0.8318744589469462, android.sensor.linear_acceleration
1551581876437, 0.0469207763671875, 0.8262481689453125, 10.266326904296875, 0.0218505859375, 0.319854736328125, 0.0025634765625, -346.76666259765625, -18.65081787109375, -62.78839111328125, 100.85299682617188, -0.2226668745279312, -0.16413652896881104, -1.0151567459106445, -0.09163808077573776, 0.5030764937400818, 9.796664237976074, 994.7369995117188, 0.03034374676644802, -0.01622730679810047, -0.7275946140289307, 93.0, -3.7379614690542864, 1.2586912726337507, android.sensor.rotation_vector
1551581876437, 0.0469207763671875, 0.8262481689453125, 10.266326904296875, 0.0218505859375, 0.319854736328125, 0.0025634765625, -346.76666259765625, -18.65081787109375, -62.78839111328125, 100.85299682617188, -0.2226668745279312, -0.16413652896881104, -1.0151567459106445, -0.09163808077573776, 0.5030764937400818, 9.796664237976074, 994.7369995117188, 0.03034374676644802, -0.01622730679810047, -0.7275946140289307, 93.0, -3.7379614690542864, 1.2586912726337507, android.sensor.orientation
1551581876456, 0.0469207763671875, 0.8262481689453125, 10.266326904296875, 0.0218505859375, 0.319854736328125, 0.0025634765625, -346.76666259765625, -18.65081787109375, -62.78839111328125, 100.85299682617188, -0.2226668745279312, -0.16413652896881104, -1.0151567459106445, -0.09163808077573776, 0.5030764937400818, 9.796664237976074, 994.7434692382812, 0.03034374676644802, -0.01622730679810047, -0.7275946140289307, 93.0, -3.7379614690542864, 1.2586912726337507, android.sensor.pressure
1551581876491, 0.0469207763671875, 0.8262481689453125, 10.266326904296875, 0.0218505859375, 0.319854736328125, 0.0025634765625, -345.086669921875, -19.610595703125, -63.83819580078125, 100.85299682617188, -0.2226668745279312, -0.16413652896881104, -1.0151567459106445, -0.09163808077573776, 0.5030764937400818, 9.796664237976074, 994.7434692382812, 0.03034374676644802, -0.01622730679810047, -0.7275946140289307, 93.0, -3.7379614690542864, 1.2586912726337507, android.sensor.magnetic_field
1551581876509, 0.0469207763671875, 0.8262481689453125, 10.266326904296875, 0.0218505859375, 0.319854736328125, 0.0025634765625, -345.086669921875, -19.610595703125, -63.83819580078125, 100.85299682617188, -0.2226668745279312, -0.16413652896881104, -1.0151567459106445, 0.023638831451535225, 0.9212361574172974, 9.766620635986328, 994.7434692382812, 0.03034374676644802, -0.01622730679810047, -0.7275946140289307, 93.0, -3.7379614690542864, 1.2586912726337507, android.sensor.gravity
1551581876510, 0.044097900390625, 1.593353271484375, 12.911834716796875, 0.0218505859375, 0.319854736328125, 0.0025634765625, -345.086669921875, -19.610595703125, -63.83819580078125, 100.85299682617188, -0.2226668745279312, -0.16413652896881104, -1.0151567459106445, 0.023638831451535225, 0.9212361574172974, 9.766620635986328, 994.7434692382812, 0.03034374676644802, -0.01622730679810047, -0.7275946140289307, 93.0, -3.7379614690542864, 1.2586912726337507, android.sensor.accelerometer
1551581876510, 0.044097900390625, 1.593353271484375, 12.911834716796875, 0.421051025390625, -0.1723785400390625, 0.0225982666015625, -345.086669921875, -19.610595703125, -63.83819580078125, 100.85299682617188, -0.2226668745279312, -0.16413652896881104, -1.0151567459106445, 0.023638831451535225, 0.9212361574172974, 9.766620635986328, 994.7434692382812, 0.03034374676644802, -0.01622730679810047, -0.7275946140289307, 93.0, -3.7379614690542864, 1.2586912726337507, android.sensor.gyroscope
1551581876523, 0.044097900390625, 1.593353271484375, 12.911834716796875, 0.421051025390625, -0.1723785400390625, 0.0225982666015625, -345.086669921875, -19.610595703125, -63.83819580078125, 100.85299682617188, -0.1893233060836792, -0.8698381185531616, -4.112063407897949, 0.023638831451535225, 0.9212361574172974, 9.766620635986328, 994.7434692382812, 0.03034374676644802, -0.01622730679810047, -0.7275946140289307, 93.0, -3.7379614690542864, 1.2586912726337507, android.sensor.linear_acceleration
1551581876535, 0.044097900390625, 1.593353271484375, 12.911834716796875, 0.421051025390625, -0.1723785400390625, 0.0225982666015625, -345.086669921875, -19.610595703125, -63.83819580078125, 100.85299682617188, -0.1893233060836792, -0.8698381185531616, -4.112063407897949, 0.023638831451535225, 0.9212361574172974, 9.766620635986328, 994.7434692382812, 0.029349954798817635, -0.03529302775859833, -0.7278897166252136, 93.0, -5.25213756841795, -0.3201866484484891, android.sensor.rotation_vector
1551581876536, 0.044097900390625, 1.593353271484375, 12.911834716796875, 0.421051025390625, -0.1723785400390625, 0.0225982666015625, -345.086669921875, -19.610595703125, -63.83819580078125, 100.85299682617188, -0.1893233060836792, -0.8698381185531616, -4.112063407897949, 0.023638831451535225, 0.9212361574172974, 9.766620635986328, 994.7434692382812, 0.029349954798817635, -0.03529302775859833, -0.7278897166252136, 93.0, -5.25213756841795, -0.3201866484484891, android.sensor.orientation
1551581876553, 0.044097900390625, 1.593353271484375, 12.911834716796875, 0.421051025390625, -0.1723785400390625, 0.0225982666015625, -345.086669921875, -19.610595703125, -63.83819580078125, 100.85299682617188, -0.1893233060836792, -0.8698381185531616, -4.112063407897949, 0.023638831451535225, 0.9212361574172974, 9.766620635986328, 994.7434692382812, 0.029349954798817635, -0.03529302775859833, -0.7278897166252136, 93.0, -5.25213756841795, -0.3201866484484891, android.sensor.pressure
1551581876586, 0.044097900390625, 1.593353271484375, 12.911834716796875, 0.421051025390625, -0.1723785400390625, 0.0225982666015625, -346.01593017578125, -22.01080322265625, -63.4490966796875, 100.85299682617188, -0.1893233060836792, -0.8698381185531616, -4.112063407897949, 0.023638831451535225, 0.9212361574172974, 9.766620635986328, 994.7434692382812, 0.029349954798817635, -0.03529302775859833, -0.7278897166252136, 93.0, -5.25213756841795, -0.3201866484484891, android.sensor.magnetic_field
1551581876605, -0.0662689208984375, 2.147003173828125, 14.290130615234375, 0.421051025390625, -0.1723785400390625, 0.0225982666015625, -346.01593017578125, -22.01080322265625, -63.4490966796875, 100.85299682617188, -0.1893233060836792, -0.8698381185531616, -4.112063407897949, 0.023638831451535225, 0.9212361574172974, 9.766620635986328, 994.7434692382812, 0.029349954798817635, -0.03529302775859833, -0.7278897166252136, 93.0, -5.25213756841795, -0.3201866484484891, android.sensor.accelerometer
1551581876605, -0.0662689208984375, 2.147003173828125, 14.290130615234375, 0.421051025390625, -0.1723785400390625, 0.0225982666015625, -346.01593017578125, -22.01080322265625, -63.4490966796875, 100.85299682617188, -0.1893233060836792, -0.8698381185531616, -4.112063407897949, 0.03252389654517174, 0.5176041126251221, 9.796281814575195, 994.7434692382812, 0.029349954798817635, -0.03529302775859833, -0.7278897166252136, 93.0, -5.25213756841795, -0.3201866484484891, android.sensor.gravity
1551581876605, -0.0662689208984375, 2.147003173828125, 14.290130615234375, -0.47735595703125, -0.0274505615234375, -0.5317230224609375, -346.01593017578125, -22.01080322265625, -63.4490966796875, 100.85299682617188, -0.1893233060836792, -0.8698381185531616, -4.112063407897949, 0.03252389654517174, 0.5176041126251221, 9.796281814575195, 994.7434692382812, 0.029349954798817635, -0.03529302775859833, -0.7278897166252136, 93.0, -5.25213756841795, -0.3201866484484891, android.sensor.gyroscope
1551581876619, -0.0662689208984375, 2.147003173828125, 14.290130615234375, -0.47735595703125, -0.0274505615234375, -0.5317230224609375, -346.01593017578125, -22.01080322265625, -63.4490966796875, 100.85299682617188, 0.20335470139980316, -1.3894743919372559, -3.964569091796875, 0.03252389654517174, 0.5176041126251221, 9.796281814575195, 994.7434692382812, 0.029349954798817635, -0.03529302775859833, -0.7278897166252136, 93.0, -5.25213756841795, -0.3201866484484891, android.sensor.linear_acceleration
1551581876629, -0.0662689208984375, 2.147003173828125, 14.290130615234375, -0.47735595703125, -0.0274505615234375, -0.5317230224609375, -346.01593017578125, -22.01080322265625, -63.4490966796875, 100.85299682617188, 0.20335470139980316, -1.3894743919372559, -3.964569091796875, 0.03252389654517174, 0.5176041126251221, 9.796281814575195, 994.7434692382812, 0.007391910068690777, -0.008892511948943138, -0.7553756833076477, 98.0, -1.3248300220793938, -0.027809131880973444, android.sensor.rotation_vector
1551581876629, -0.0662689208984375, 2.147003173828125, 14.290130615234375, -0.47735595703125, -0.0274505615234375, -0.5317230224609375, -346.01593017578125, -22.01080322265625, -63.4490966796875, 100.85299682617188, 0.20335470139980316, -1.3894743919372559, -3.964569091796875, 0.03252389654517174, 0.5176041126251221, 9.796281814575195, 994.7434692382812, 0.007391910068690777, -0.008892511948943138, -0.7553756833076477, 98.0, -1.3248300220793938, -0.027809131880973444, android.sensor.orientation
1551581876655, -0.0662689208984375, 2.147003173828125, 14.290130615234375, -0.47735595703125, -0.0274505615234375, -0.5317230224609375, -346.01593017578125, -22.01080322265625, -63.4490966796875, 100.85299682617188, 0.20335470139980316, -1.3894743919372559, -3.964569091796875, 0.03252389654517174, 0.5176041126251221, 9.796281814575195, 994.7349853515625, 0.007391910068690777, -0.008892511948943138, -0.7553756833076477, 98.0, -1.3248300220793938, -0.027809131880973444, android.sensor.pressure
1551581876686, -0.0662689208984375, 2.147003173828125, 14.290130615234375, -0.47735595703125, -0.0274505615234375, -0.5317230224609375, -347.30682373046875, -20.60089111328125, -60.5682373046875, 100.85299682617188, 0.20335470139980316, -1.3894743919372559, -3.964569091796875, 0.03252389654517174, 0.5176041126251221, 9.796281814575195, 994.7349853515625, 0.007391910068690777, -0.008892511948943138, -0.7553756833076477, 98.0, -1.3248300220793938, -0.027809131880973444, android.sensor.magnetic_field
1551581876706, -0.5553436279296875, -1.7015228271484375, 9.479202270507812, -0.47735595703125, -0.0274505615234375, -0.5317230224609375, -347.30682373046875, -20.60089111328125, -60.5682373046875, 100.85299682617188, 0.20335470139980316, -1.3894743919372559, -3.964569091796875, 0.03252389654517174, 0.5176041126251221, 9.796281814575195, 994.7349853515625, 0.007391910068690777, -0.008892511948943138, -0.7553756833076477, 98.0, -1.3248300220793938, -0.027809131880973444, android.sensor.accelerometer
1551581876706, -0.5553436279296875, -1.7015228271484375, 9.479202270507812, -0.59765625, -0.3037109375, -0.8076019287109375, -347.30682373046875, -20.60089111328125, -60.5682373046875, 100.85299682617188, 0.20335470139980316, -1.3894743919372559, -3.964569091796875, 0.03252389654517174, 0.5176041126251221, 9.796281814575195, 994.7349853515625, 0.007391910068690777, -0.008892511948943138, -0.7553756833076477, 98.0, -1.3248300220793938, -0.027809131880973444, android.sensor.gyroscope
1551581876706, -0.5553436279296875, -1.7015228271484375, 9.479202270507812, -0.59765625, -0.3037109375, -0.8076019287109375, -347.30682373046875, -20.60089111328125, -60.5682373046875, 100.85299682617188, 0.20335470139980316, -1.3894743919372559, -3.964569091796875, 0.29788079857826233, -0.13458742201328278, 9.804553031921387, 994.7349853515625, 0.007391910068690777, -0.008892511948943138, -0.7553756833076477, 98.0, -1.3248300220793938, -0.027809131880973444, android.sensor.gravity
1551581876719, -0.5553436279296875, -1.7015228271484375, 9.479202270507812, -0.59765625, -0.3037109375, -0.8076019287109375, -347.30682373046875, -20.60089111328125, -60.5682373046875, 100.85299682617188, 0.7824567556381226, 1.713622808456421, 1.1432008743286133, 0.29788079857826233, -0.13458742201328278, 9.804553031921387, 994.7349853515625, 0.007391910068690777, -0.008892511948943138, -0.7553756833076477, 98.0, -1.3248300220793938, -0.027809131880973444, android.sensor.linear_acceleration
1551581876729, -0.5553436279296875, -1.7015228271484375, 9.479202270507812, -0.59765625, -0.3037109375, -0.8076019287109375, -347.30682373046875, -20.60089111328125, -60.5682373046875, 100.85299682617188, 0.7824567556381226, 1.713622808456421, 1.1432008743286133, 0.29788079857826233, -0.13458742201328278, 9.804553031921387, 994.7349853515625, -0.012298543937504292, -0.010900061577558517, -0.7717567086219788, 101.0, -0.06806071398527466, -1.8820150833410547, android.sensor.rotation_vector
1551581876729, -0.5553436279296875, -1.7015228271484375, 9.479202270507812, -0.59765625, -0.3037109375, -0.8076019287109375, -347.30682373046875, -20.60089111328125, -60.5682373046875, 100.85299682617188, 0.7824567556381226, 1.713622808456421, 1.1432008743286133, 0.29788079857826233, -0.13458742201328278, 9.804553031921387, 994.7349853515625, -0.012298543937504292, -0.010900061577558517, -0.7717567086219788, 101.0, -0.06806071398527466, -1.8820150833410547, android.sensor.orientation
1551581876743, -0.5553436279296875, -1.7015228271484375, 9.479202270507812, -0.59765625, -0.3037109375, -0.8076019287109375, -347.30682373046875, -20.60089111328125, -60.5682373046875, 109.32798767089844, 0.7824567556381226, 1.713622808456421, 1.1432008743286133, 0.29788079857826233, -0.13458742201328278, 9.804553031921387, 994.7349853515625, -0.012298543937504292, -0.010900061577558517, -0.7717567086219788, 101.0, -0.06806071398527466, -1.8820150833410547, android.sensor.light
1551581876755, -0.5553436279296875, -1.7015228271484375, 9.479202270507812, -0.59765625, -0.3037109375, -0.8076019287109375, -347.30682373046875, -20.60089111328125, -60.5682373046875, 109.32798767089844, 0.7824567556381226, 1.713622808456421, 1.1432008743286133, 0.29788079857826233, -0.13458742201328278, 9.804553031921387, 994.7315673828125, -0.012298543937504292, -0.010900061577558517, -0.7717567086219788, 101.0, -0.06806071398527466, -1.8820150833410547, android.sensor.pressure
1551581876784, -0.5553436279296875, -1.7015228271484375, 9.479202270507812, -0.59765625, -0.3037109375, -0.8076019287109375, -349.76654052734375, -22.9095458984375, -57.7789306640625, 109.32798767089844, 0.7824567556381226, 1.713622808456421, 1.1432008743286133, 0.29788079857826233, -0.13458742201328278, 9.804553031921387, 994.7315673828125, -0.012298543937504292, -0.010900061577558517, -0.7717567086219788, 101.0, -0.06806071398527466, -1.8820150833410547, android.sensor.magnetic_field
1551581876807, -0.7300872802734375, -0.1920318603515625, 3.7662353515625, -0.59765625, -0.3037109375, -0.8076019287109375, -349.76654052734375, -22.9095458984375, -57.7789306640625, 109.32798767089844, 0.7824567556381226, 1.713622808456421, 1.1432008743286133, 0.29788079857826233, -0.13458742201328278, 9.804553031921387, 994.7315673828125, -0.012298543937504292, -0.010900061577558517, -0.7717567086219788, 101.0, -0.06806071398527466, -1.8820150833410547, android.sensor.accelerometer
1551581876807, -0.7300872802734375, -0.1920318603515625, 3.7662353515625, 0.6226806640625, -0.166351318359375, 0.261383056640625, -349.76654052734375, -22.9095458984375, -57.7789306640625, 109.32798767089844, 0.7824567556381226, 1.713622808456421, 1.1432008743286133, 0.29788079857826233, -0.13458742201328278, 9.804553031921387, 994.7315673828125, -0.012298543937504292, -0.010900061577558517, -0.7717567086219788, 101.0, -0.06806071398527466, -1.8820150833410547, android.sensor.gyroscope
1551581876808, -0.7300872802734375, -0.1920318603515625, 3.7662353515625, 0.6226806640625, -0.166351318359375, 0.261383056640625, -349.76654052734375, -22.9095458984375, -57.7789306640625, 109.32798767089844, 0.7824567556381226, 1.713622808456421, 1.1432008743286133, 0.5084333419799805, 0.4398331642150879, 9.786937713623047, 994.7315673828125, -0.012298543937504292, -0.010900061577558517, -0.7717567086219788, 101.0, -0.06806071398527466, -1.8820150833410547, android.sensor.gravity
1551581876820, -0.7300872802734375, -0.1920318603515625, 3.7662353515625, 0.6226806640625, -0.166351318359375, 0.261383056640625, -349.76654052734375, -22.9095458984375, -57.7789306640625, 109.32798767089844, 1.0811023712158203, 0.6216835975646973, 6.720211982727051, 0.5084333419799805, 0.4398331642150879, 9.786937713623047, 994.7315673828125, -0.012298543937504292, -0.010900061577558517, -0.7717567086219788, 101.0, -0.06806071398527466, -1.8820150833410547, android.sensor.linear_acceleration
1551581876829, -0.7300872802734375, -0.1920318603515625, 3.7662353515625, 0.6226806640625, -0.166351318359375, 0.261383056640625, -349.76654052734375, -22.9095458984375, -57.7789306640625, 109.32798767089844, 1.0811023712158203, 0.6216835975646973, 6.720211982727051, 0.5084333419799805, 0.4398331642150879, 9.786937713623047, 994.7315673828125, 0.006159808486700058, -0.03748968243598938, -0.7610035538673401, 99.0, -3.729045083979658, -2.2504167041513248, android.sensor.rotation_vector
1551581876829, -0.7300872802734375, -0.1920318603515625, 3.7662353515625, 0.6226806640625, -0.166351318359375, 0.261383056640625, -349.76654052734375, -22.9095458984375, -57.7789306640625, 109.32798767089844, 1.0811023712158203, 0.6216835975646973, 6.720211982727051, 0.5084333419799805, 0.4398331642150879, 9.786937713623047, 994.7315673828125, 0.006159808486700058, -0.03748968243598938, -0.7610035538673401, 99.0, -3.729045083979658, -2.2504167041513248, android.sensor.orientation
1551581876857, -0.7300872802734375, -0.1920318603515625, 3.7662353515625, 0.6226806640625, -0.166351318359375, 0.261383056640625, -349.76654052734375, -22.9095458984375, -57.7789306640625, 109.32798767089844, 1.0811023712158203, 0.6216835975646973, 6.720211982727051, 0.5084333419799805, 0.4398331642150879, 9.786937713623047, 994.7315673828125, 0.006159808486700058, -0.03748968243598938, -0.7610035538673401, 99.0, -3.729045083979658, -2.2504167041513248, android.sensor.pressure
1551581876880, -0.7300872802734375, -0.1920318603515625, 3.7662353515625, 0.6226806640625, -0.166351318359375, 0.261383056640625, -349.64599609375, -28.5797119140625, -58.7677001953125, 109.32798767089844, 1.0811023712158203, 0.6216835975646973, 6.720211982727051, 0.5084333419799805, 0.4398331642150879, 9.786937713623047, 994.7315673828125, 0.006159808486700058, -0.03748968243598938, -0.7610035538673401, 99.0, -3.729045083979658, -2.2504167041513248, android.sensor.magnetic_field
1551581876905, -0.2374725341796875, -0.1749420166015625, 1.8917388916015625, 0.6226806640625, -0.166351318359375, 0.261383056640625, -349.64599609375, -28.5797119140625, -58.7677001953125, 109.32798767089844, 1.0811023712158203, 0.6216835975646973, 6.720211982727051, 0.5084333419799805, 0.4398331642150879, 9.786937713623047, 994.7315673828125, 0.006159808486700058, -0.03748968243598938, -0.7610035538673401, 99.0, -3.729045083979658, -2.2504167041513248, android.sensor.accelerometer
1551581876906, -0.2374725341796875, -0.1749420166015625, 1.8917388916015625, 0.73028564453125, 0.391845703125, 0.285675048828125, -349.64599609375, -28.5797119140625, -58.7677001953125, 109.32798767089844, 1.0811023712158203, 0.6216835975646973, 6.720211982727051, 0.5084333419799805, 0.4398331642150879, 9.786937713623047, 994.7315673828125, 0.006159808486700058, -0.03748968243598938, -0.7610035538673401, 99.0, -3.729045083979658, -2.2504167041513248, android.sensor.gyroscope
1551581876906, -0.2374725341796875, -0.1749420166015625, 1.8917388916015625, 0.73028564453125, 0.391845703125, 0.285675048828125, -349.64599609375, -28.5797119140625, -58.7677001953125, 109.32798767089844, 1.0811023712158203, 0.6216835975646973, 6.720211982727051, 0.14096267521381378, 1.1279301643371582, 9.743921279907227, 994.7315673828125, 0.006159808486700058, -0.03748968243598938, -0.7610035538673401, 99.0, -3.729045083979658, -2.2504167041513248, android.sensor.gravity
1551581876915, -0.2374725341796875, -0.1749420166015625, 1.8917388916015625, 0.73028564453125, 0.391845703125, 0.285675048828125, -349.64599609375, -28.5797119140625, -58.7677001953125, 109.32798767089844, 0.18372344970703125, 1.4296417236328125, 7.112409591674805, 0.14096267521381378, 1.1279301643371582, 9.743921279907227, 994.7315673828125, 0.006159808486700058, -0.03748968243598938, -0.7610035538673401, 99.0, -3.729045083979658, -2.2504167041513248, android.sensor.linear_acceleration
1551581876925, -0.2374725341796875, -0.1749420166015625, 1.8917388916015625, 0.73028564453125, 0.391845703125, 0.285675048828125, -349.64599609375, -28.5797119140625, -58.7677001953125, 109.32798767089844, 0.18372344970703125, 1.4296417236328125, 7.112409591674805, 0.14096267521381378, 1.1279301643371582, 9.743921279907227, 994.7315673828125, 0.039009056985378265, -0.0512305311858654, -0.7502028346061707, 97.0, -7.36602690191036, -0.5139875298559151, android.sensor.rotation_vector
1551581876926, -0.2374725341796875, -0.1749420166015625, 1.8917388916015625, 0.73028564453125, 0.391845703125, 0.285675048828125, -349.64599609375, -28.5797119140625, -58.7677001953125, 109.32798767089844, 0.18372344970703125, 1.4296417236328125, 7.112409591674805, 0.14096267521381378, 1.1279301643371582, 9.743921279907227, 994.7315673828125, 0.039009056985378265, -0.0512305311858654, -0.7502028346061707, 97.0, -7.36602690191036, -0.5139875298559151, android.sensor.orientation
1551581876958, -0.2374725341796875, -0.1749420166015625, 1.8917388916015625, 0.73028564453125, 0.391845703125, 0.285675048828125, -349.64599609375, -28.5797119140625, -58.7677001953125, 109.32798767089844, 0.18372344970703125, 1.4296417236328125, 7.112409591674805, 0.14096267521381378, 1.1279301643371582, 9.743921279907227, 994.7264404296875, 0.039009056985378265, -0.0512305311858654, -0.7502028346061707, 97.0, -7.36602690191036, -0.5139875298559151, android.sensor.pressure
1551581876983, -0.2374725341796875, -0.1749420166015625, 1.8917388916015625, 0.73028564453125, 0.391845703125, 0.285675048828125, -346.43707275390625, -31.04095458984375, -61.1083984375, 109.32798767089844, 0.18372344970703125, 1.4296417236328125, 7.112409591674805, 0.14096267521381378, 1.1279301643371582, 9.743921279907227, 994.7264404296875, 0.039009056985378265, -0.0512305311858654, -0.7502028346061707, 97.0, -7.36602690191036, -0.5139875298559151, android.sensor.magnetic_field
1551581876999, -0.2374725341796875, -0.1749420166015625, 1.8917388916015625, 0.73028564453125, 0.391845703125, 0.285675048828125, -346.43707275390625, -31.04095458984375, -61.1083984375, 109.32798767089844, 0.18372344970703125, 1.4296417236328125, 7.112409591674805, -0.25361570715904236, 1.4296246767044067, 9.701955795288086, 994.7264404296875, 0.039009056985378265, -0.0512305311858654, -0.7502028346061707, 97.0, -7.36602690191036, -0.5139875298559151, android.sensor.gravity
1551581877000, -0.0591888427734375, 1.4390106201171875, 8.860855102539062, 0.73028564453125, 0.391845703125, 0.285675048828125, -346.43707275390625, -31.04095458984375, -61.1083984375, 109.32798767089844, 0.18372344970703125, 1.4296417236328125, 7.112409591674805, -0.25361570715904236, 1.4296246767044067, 9.701955795288086, 994.7264404296875, 0.039009056985378265, -0.0512305311858654, -0.7502028346061707, 97.0, -7.36602690191036, -0.5139875298559151, android.sensor.accelerometer
1551581877000, -0.0591888427734375, 1.4390106201171875, 8.860855102539062, 0.30145263671875, 0.44903564453125, 0.3031768798828125, -346.43707275390625, -31.04095458984375, -61.1083984375, 109.32798767089844, 0.18372344970703125, 1.4296417236328125, 7.112409591674805, -0.25361570715904236, 1.4296246767044067, 9.701955795288086, 994.7264404296875, 0.039009056985378265, -0.0512305311858654, -0.7502028346061707, 97.0, -7.36602690191036, -0.5139875298559151, android.sensor.gyroscope
1551581877013, -0.0591888427734375, 1.4390106201171875, 8.860855102539062, 0.30145263671875, 0.44903564453125, 0.3031768798828125, -346.43707275390625, -31.04095458984375, -61.1083984375, 109.32798767089844, -0.18481802940368652, -0.01538074016571045, -0.7086505889892578, -0.25361570715904236, 1.4296246767044067, 9.701955795288086, 994.7264404296875, 0.039009056985378265, -0.0512305311858654, -0.7502028346061707, 97.0, -7.36602690191036, -0.5139875298559151, android.sensor.linear_acceleration
1551581877029, -0.0591888427734375, 1.4390106201171875, 8.860855102539062, 0.30145263671875, 0.44903564453125, 0.3031768798828125, -346.43707275390625, -31.04095458984375, -61.1083984375, 109.32798767089844, -0.18481802940368652, -0.01538074016571045, -0.7086505889892578, -0.25361570715904236, 1.4296246767044067, 9.701955795288086, 994.7264404296875, 0.06603055447340012, -0.05132189765572548, -0.7388942241668701, 95.0, -9.447307631644659, 1.6817813643546666, android.sensor.rotation_vector
1551581877029, -0.0591888427734375, 1.4390106201171875, 8.860855102539062, 0.30145263671875, 0.44903564453125, 0.3031768798828125, -346.43707275390625, -31.04095458984375, -61.1083984375, 109.32798767089844, -0.18481802940368652, -0.01538074016571045, -0.7086505889892578, -0.25361570715904236, 1.4296246767044067, 9.701955795288086, 994.7264404296875, 0.06603055447340012, -0.05132189765572548, -0.7388942241668701, 95.0, -9.447307631644659, 1.6817813643546666, android.sensor.orientation
1551581877059, -0.0591888427734375, 1.4390106201171875, 8.860855102539062, 0.30145263671875, 0.44903564453125, 0.3031768798828125, -346.43707275390625, -31.04095458984375, -61.1083984375, 109.32798767089844, -0.18481802940368652, -0.01538074016571045, -0.7086505889892578, -0.25361570715904236, 1.4296246767044067, 9.701955795288086, 994.7264404296875, 0.06603055447340012, -0.05132189765572548, -0.7388942241668701, 95.0, -9.447307631644659, 1.6817813643546666, android.sensor.pressure
1551581877074, -0.0591888427734375, 1.4390106201171875, 8.860855102539062, 0.30145263671875, 0.44903564453125, 0.3031768798828125, -344.27642822265625, -30.68084716796875, -64.617919921875, 109.32798767089844, -0.18481802940368652, -0.01538074016571045, -0.7086505889892578, -0.25361570715904236, 1.4296246767044067, 9.701955795288086, 994.7264404296875, 0.06603055447340012, -0.05132189765572548, -0.7388942241668701, 95.0, -9.447307631644659, 1.6817813643546666, android.sensor.magnetic_field
1551581877093, -0.2928924560546875, 2.8592529296875, 17.433303833007812, 0.30145263671875, 0.44903564453125, 0.3031768798828125, -344.27642822265625, -30.68084716796875, -64.617919921875, 109.32798767089844, -0.18481802940368652, -0.01538074016571045, -0.7086505889892578, -0.25361570715904236, 1.4296246767044067, 9.701955795288086, 994.7264404296875, 0.06603055447340012, -0.05132189765572548, -0.7388942241668701, 95.0, -9.447307631644659, 1.6817813643546666, android.sensor.accelerometer
1551581877093, -0.2928924560546875, 2.8592529296875, 17.433303833007812, -0.5999755859375, 0.3740997314453125, 0.0162200927734375, -344.27642822265625, -30.68084716796875, -64.617919921875, 109.32798767089844, -0.18481802940368652, -0.01538074016571045, -0.7086505889892578, -0.25361570715904236, 1.4296246767044067, 9.701955795288086, 994.7264404296875, 0.06603055447340012, -0.05132189765572548, -0.7388942241668701, 95.0, -9.447307631644659, 1.6817813643546666, android.sensor.gyroscope
1551581877094, -0.2928924560546875, 2.8592529296875, 17.433303833007812, -0.5999755859375, 0.3740997314453125, 0.0162200927734375, -344.27642822265625, -30.68084716796875, -64.617919921875, 109.32798767089844, -0.18481802940368652, -0.01538074016571045, -0.7086505889892578, -0.5169816017150879, 0.951410174369812, 9.750059127807617, 994.7264404296875, 0.06603055447340012, -0.05132189765572548, -0.7388942241668701, 95.0, -9.447307631644659, 1.6817813643546666, android.sensor.gravity
1551581877107, -0.2928924560546875, 2.8592529296875, 17.433303833007812, -0.5999755859375, 0.3740997314453125, 0.0162200927734375, -344.27642822265625, -30.68084716796875, -64.617919921875, 109.32798767089844, -0.23384898900985718, -1.6770315170288086, -7.768567085266113, -0.5169816017150879, 0.951410174369812, 9.750059127807617, 994.7264404296875, 0.06603055447340012, -0.05132189765572548, -0.7388942241668701, 95.0, -9.447307631644659, 1.6817813643546666, android.sensor.linear_acceleration
1551581877118, -0.2928924560546875, 2.8592529296875, 17.433303833007812, -0.5999755859375, 0.3740997314453125, 0.0162200927734375, -344.27642822265625, -30.68084716796875, -64.617919921875, 109.32798767089844, -0.23384898900985718, -1.6770315170288086, -7.768567085266113, -0.5169816017150879, 0.951410174369812, 9.750059127807617, 994.7264404296875, 0.056719306856393814, -0.005815939512103796, -0.7389417886734009, 95.0, -4.861797379993599, 4.3753419157951825, android.sensor.rotation_vector
1551581877118, -0.2928924560546875, 2.8592529296875, 17.433303833007812, -0.5999755859375, 0.3740997314453125, 0.0162200927734375, -344.27642822265625, -30.68084716796875, -64.617919921875, 109.32798767089844, -0.23384898900985718, -1.6770315170288086, -7.768567085266113, -0.5169816017150879, 0.951410174369812, 9.750059127807617, 994.7264404296875, 0.056719306856393814, -0.005815939512103796, -0.7389417886734009, 95.0, -4.861797379993599, 4.3753419157951825, android.sensor.orientation
1551581877158, -0.2928924560546875, 2.8592529296875, 17.433303833007812, -0.5999755859375, 0.3740997314453125, 0.0162200927734375, -344.27642822265625, -30.68084716796875, -64.617919921875, 109.32798767089844, -0.23384898900985718, -1.6770315170288086, -7.768567085266113, -0.5169816017150879, 0.951410174369812, 9.750059127807617, 994.736328125, 0.056719306856393814, -0.005815939512103796, -0.7389417886734009, 95.0, -4.861797379993599, 4.3753419157951825, android.sensor.pressure
1551581877180, -0.2928924560546875, 2.8592529296875, 17.433303833007812, -0.5999755859375, 0.3740997314453125, 0.0162200927734375, -341.90673828125, -23.24066162109375, -66.35894775390625, 109.32798767089844, -0.23384898900985718, -1.6770315170288086, -7.768567085266113, -0.5169816017150879, 0.951410174369812, 9.750059127807617, 994.736328125, 0.056719306856393814, -0.005815939512103796, -0.7389417886734009, 95.0, -4.861797379993599, 4.3753419157951825, android.sensor.magnetic_field
1551581877193, -0.2928924560546875, 2.8592529296875, 17.433303833007812, -0.5999755859375, 0.3740997314453125, 0.0162200927734375, -341.90673828125, -23.24066162109375, -66.35894775390625, 109.32798767089844, -0.23384898900985718, -1.6770315170288086, -7.768567085266113, -0.07606171816587448, 1.1612228155136108, 9.74073314666748, 994.736328125, 0.056719306856393814, -0.005815939512103796, -0.7389417886734009, 95.0, -4.861797379993599, 4.3753419157951825, android.sensor.gravity
1551581877193, -1.1606903076171875, 2.426910400390625, 14.633682250976562, -0.5999755859375, 0.3740997314453125, 0.0162200927734375, -341.90673828125, -23.24066162109375, -66.35894775390625, 109.32798767089844, -0.23384898900985718, -1.6770315170288086, -7.768567085266113, -0.07606171816587448, 1.1612228155136108, 9.74073314666748, 994.736328125, 0.056719306856393814, -0.005815939512103796, -0.7389417886734009, 95.0, -4.861797379993599, 4.3753419157951825, android.sensor.accelerometer
1551581877193, -1.1606903076171875, 2.426910400390625, 14.633682250976562, 0.258575439453125, -0.5710906982421875, 0.2324676513671875, -341.90673828125, -23.24066162109375, -66.35894775390625, 109.32798767089844, -0.23384898900985718, -1.6770315170288086, -7.768567085266113, -0.07606171816587448, 1.1612228155136108, 9.74073314666748, 994.736328125, 0.056719306856393814, -0.005815939512103796, -0.7389417886734009, 95.0, -4.861797379993599, 4.3753419157951825, android.sensor.gyroscope
1551581877209, -1.1606903076171875, 2.426910400390625, 14.633682250976562, 0.258575439453125, -0.5710906982421875, 0.2324676513671875, -341.90673828125, -23.24066162109375, -66.35894775390625, 109.32798767089844, 0.9946532249450684, -1.891661286354065, -4.825466156005859, -0.07606171816587448, 1.1612228155136108, 9.74073314666748, 994.736328125, 0.056719306856393814, -0.005815939512103796, -0.7389417886734009, 95.0, -4.861797379993599, 4.3753419157951825, android.sensor.linear_acceleration
1551581877221, -1.1606903076171875, 2.426910400390625, 14.633682250976562, 0.258575439453125, -0.5710906982421875, 0.2324676513671875, -341.90673828125, -23.24066162109375, -66.35894775390625, 109.32798767089844, 0.9946532249450684, -1.891661286354065, -4.825466156005859, -0.07606171816587448, 1.1612228155136108, 9.74073314666748, 994.736328125, 0.026482760906219482, -0.03921763598918915, -0.7355288863182068, 94.0, -5.3642760410980435, -0.8086842058066076, android.sensor.rotation_vector
1551581877221, -1.1606903076171875, 2.426910400390625, 14.633682250976562, 0.258575439453125, -0.5710906982421875, 0.2324676513671875, -341.90673828125, -23.24066162109375, -66.35894775390625, 109.32798767089844, 0.9946532249450684, -1.891661286354065, -4.825466156005859, -0.07606171816587448, 1.1612228155136108, 9.74073314666748, 994.736328125, 0.026482760906219482, -0.03921763598918915, -0.7355288863182068, 94.0, -5.3642760410980435, -0.8086842058066076, android.sensor.orientation
1551581877256, -1.1606903076171875, 2.426910400390625, 14.633682250976562, 0.258575439453125, -0.5710906982421875, 0.2324676513671875, -341.90673828125, -23.24066162109375, -66.35894775390625, 109.32798767089844, 0.9946532249450684, -1.891661286354065, -4.825466156005859, -0.07606171816587448, 1.1612228155136108, 9.74073314666748, 994.7406005859375, 0.026482760906219482, -0.03921763598918915, -0.7355288863182068, 94.0, -5.3642760410980435, -0.8086842058066076, android.sensor.pressure
1551581877269, -1.1606903076171875, 2.426910400390625, 14.633682250976562, 0.258575439453125, -0.5710906982421875, 0.2324676513671875, -347.576904296875, -23.45123291015625, -63.3575439453125, 109.32798767089844, 0.9946532249450684, -1.891661286354065, -4.825466156005859, -0.07606171816587448, 1.1612228155136108, 9.74073314666748, 994.7406005859375, 0.026482760906219482, -0.03921763598918915, -0.7355288863182068, 94.0, -5.3642760410980435, -0.8086842058066076, android.sensor.magnetic_field
1551581877293, -1.1606903076171875, 2.426910400390625, 14.633682250976562, 0.258575439453125, -0.5710906982421875, 0.2324676513671875, -347.576904296875, -23.45123291015625, -63.3575439453125, 109.32798767089844, 0.9946532249450684, -1.891661286354065, -4.825466156005859, 0.5833434462547302, -0.21422554552555084, 9.790297508239746, 994.7406005859375, 0.026482760906219482, -0.03921763598918915, -0.7355288863182068, 94.0, -5.3642760410980435, -0.8086842058066076, android.sensor.gravity
1551581877293, 0.98382568359375, 0.6871185302734375, 12.03192138671875, 0.258575439453125, -0.5710906982421875, 0.2324676513671875, -347.576904296875, -23.45123291015625, -63.3575439453125, 109.32798767089844, 0.9946532249450684, -1.891661286354065, -4.825466156005859, 0.5833434462547302, -0.21422554552555084, 9.790297508239746, 994.7406005859375, 0.026482760906219482, -0.03921763598918915, -0.7355288863182068, 94.0, -5.3642760410980435, -0.8086842058066076, android.sensor.accelerometer
1551581877293, 0.98382568359375, 0.6871185302734375, 12.03192138671875, -1.488494873046875, -0.6930694580078125, -0.4592437744140625, -347.576904296875, -23.45123291015625, -63.3575439453125, 109.32798767089844, 0.9946532249450684, -1.891661286354065, -4.825466156005859, 0.5833434462547302, -0.21422554552555084, 9.790297508239746, 994.7406005859375, 0.026482760906219482, -0.03921763598918915, -0.7355288863182068, 94.0, -5.3642760410980435, -0.8086842058066076, android.sensor.gyroscope
1551581877310, 0.98382568359375, 0.6871185302734375, 12.03192138671875, -1.488494873046875, -0.6930694580078125, -0.4592437744140625, -347.576904296875, -23.45123291015625, -63.3575439453125, 109.32798767089844, -0.6732567548751831, -0.14723825454711914, -2.1270008087158203, 0.5833434462547302, -0.21422554552555084, 9.790297508239746, 994.7406005859375, 0.026482760906219482, -0.03921763598918915, -0.7355288863182068, 94.0, -5.3642760410980435, -0.8086842058066076, android.sensor.linear_acceleration
1551581877320, 0.98382568359375, 0.6871185302734375, 12.03192138671875, -1.488494873046875, -0.6930694580078125, -0.4592437744140625, -347.576904296875, -23.45123291015625, -63.3575439453125, 109.32798767089844, -0.6732567548751831, -0.14723825454711914, -2.1270008087158203, 0.5833434462547302, -0.21422554552555084, 9.790297508239746, 994.7406005859375, -0.03844492882490158, -0.008164826780557632, -0.7560670375823975, 98.0, 2.1712757291252105, -3.9480350360354297, android.sensor.rotation_vector
1551581877321, 0.98382568359375, 0.6871185302734375, 12.03192138671875, -1.488494873046875, -0.6930694580078125, -0.4592437744140625, -347.576904296875, -23.45123291015625, -63.3575439453125, 109.32798767089844, -0.6732567548751831, -0.14723825454711914, -2.1270008087158203, 0.5833434462547302, -0.21422554552555084, 9.790297508239746, 994.7406005859375, -0.03844492882490158, -0.008164826780557632, -0.7560670375823975, 98.0, 2.1712757291252105, -3.9480350360354297, android.sensor.orientation
1551581877362, 0.98382568359375, 0.6871185302734375, 12.03192138671875, -1.488494873046875, -0.6930694580078125, -0.4592437744140625, -347.576904296875, -23.45123291015625, -63.3575439453125, 109.32798767089844, -0.6732567548751831, -0.14723825454711914, -2.1270008087158203, 0.5833434462547302, -0.21422554552555084, 9.790297508239746, 994.7406005859375, -0.03844492882490158, -0.008164826780557632, -0.7560670375823975, 98.0, 2.1712757291252105, -3.9480350360354297, android.sensor.pressure
1551581877372, 0.98382568359375, 0.6871185302734375, 12.03192138671875, -1.488494873046875, -0.6930694580078125, -0.4592437744140625, -351.53656005859375, -18.80035400390625, -58.73870849609375, 109.32798767089844, -0.6732567548751831, -0.14723825454711914, -2.1270008087158203, 0.5833434462547302, -0.21422554552555084, 9.790297508239746, 994.7406005859375, -0.03844492882490158, -0.008164826780557632, -0.7560670375823975, 98.0, 2.1712757291252105, -3.9480350360354297, android.sensor.magnetic_field
1551581877390, 0.98382568359375, 0.6871185302734375, 12.03192138671875, -1.488494873046875, -0.6930694580078125, -0.4592437744140625, -351.53656005859375, -18.80035400390625, -58.73870849609375, 109.32798767089844, -0.6732567548751831, -0.14723825454711914, -2.1270008087158203, 0.5353149771690369, -0.05798028036952019, 9.795211791992188, 994.7406005859375, -0.03844492882490158, -0.008164826780557632, -0.7560670375823975, 98.0, 2.1712757291252105, -3.9480350360354297, android.sensor.gravity
1551581877391, -0.0511627197265625, -0.6554718017578125, 6.0316619873046875, -1.488494873046875, -0.6930694580078125, -0.4592437744140625, -351.53656005859375, -18.80035400390625, -58.73870849609375, 109.32798767089844, -0.6732567548751831, -0.14723825454711914, -2.1270008087158203, 0.5353149771690369, -0.05798028036952019, 9.795211791992188, 994.7406005859375, -0.03844492882490158, -0.008164826780557632, -0.7560670375823975, 98.0, 2.1712757291252105, -3.9480350360354297, android.sensor.accelerometer
1551581877391, -0.0511627197265625, -0.6554718017578125, 6.0316619873046875, 0.2173614501953125, 0.1140899658203125, -0.265838623046875, -351.53656005859375, -18.80035400390625, -58.73870849609375, 109.32798767089844, -0.6732567548751831, -0.14723825454711914, -2.1270008087158203, 0.5353149771690369, -0.05798028036952019, 9.795211791992188, 994.7406005859375, -0.03844492882490158, -0.008164826780557632, -0.7560670375823975, 98.0, 2.1712757291252105, -3.9480350360354297, android.sensor.gyroscope
1551581877404, -0.0511627197265625, -0.6554718017578125, 6.0316619873046875, 0.2173614501953125, 0.1140899658203125, -0.265838623046875, -351.53656005859375, -18.80035400390625, -58.73870849609375, 109.32798767089844, 0.5654058456420898, 0.2082630693912506, 5.224137306213379, 0.5353149771690369, -0.05798028036952019, 9.795211791992188, 994.7406005859375, -0.03844492882490158, -0.008164826780557632, -0.7560670375823975, 98.0, 2.1712757291252105, -3.9480350360354297, android.sensor.linear_acceleration
1551581877413, -0.0511627197265625, -0.6554718017578125, 6.0316619873046875, 0.2173614501953125, 0.1140899658203125, -0.265838623046875, -351.53656005859375, -18.80035400390625, -58.73870849609375, 109.32798767089844, 0.5654058456420898, 0.2082630693912506, 5.224137306213379, 0.5353149771690369, -0.05798028036952019, 9.795211791992188, 994.7406005859375, -0.018243322148919106, -0.016705989837646484, -0.7598965167999268, 98.0, -0.09676664503519615, -2.8332664146627202, android.sensor.rotation_vector
1551581877413, -0.0511627197265625, -0.6554718017578125, 6.0316619873046875, 0.2173614501953125, 0.1140899658203125, -0.265838623046875, -351.53656005859375, -18.80035400390625, -58.73870849609375, 109.32798767089844, 0.5654058456420898, 0.2082630693912506, 5.224137306213379, 0.5353149771690369, -0.05798028036952019, 9.795211791992188, 994.7406005859375, -0.018243322148919106, -0.016705989837646484, -0.7598965167999268, 98.0, -0.09676664503519615, -2.8332664146627202, android.sensor.orientation
1551581877454, -0.0511627197265625, -0.6554718017578125, 6.0316619873046875, 0.2173614501953125, 0.1140899658203125, -0.265838623046875, -351.53656005859375, -18.80035400390625, -58.73870849609375, 99.15798950195312, 0.5654058456420898, 0.2082630693912506, 5.224137306213379, 0.5353149771690369, -0.05798028036952019, 9.795211791992188, 994.7406005859375, -0.018243322148919106, -0.016705989837646484, -0.7598965167999268, 98.0, -0.09676664503519615, -2.8332664146627202, android.sensor.light
1551581877455, -0.0511627197265625, -0.6554718017578125, 6.0316619873046875, 0.2173614501953125, 0.1140899658203125, -0.265838623046875, -351.53656005859375, -18.80035400390625, -58.73870849609375, 99.15798950195312, 0.5654058456420898, 0.2082630693912506, 5.224137306213379, 0.5353149771690369, -0.05798028036952019, 9.795211791992188, 994.7427978515625, -0.018243322148919106, -0.016705989837646484, -0.7598965167999268, 98.0, -0.09676664503519615, -2.8332664146627202, android.sensor.pressure
1551581877466, -0.0511627197265625, -0.6554718017578125, 6.0316619873046875, 0.2173614501953125, 0.1140899658203125, -0.265838623046875, -349.91607666015625, -22.85003662109375, -58.58917236328125, 99.15798950195312, 0.5654058456420898, 0.2082630693912506, 5.224137306213379, 0.5353149771690369, -0.05798028036952019, 9.795211791992188, 994.7427978515625, -0.018243322148919106, -0.016705989837646484, -0.7598965167999268, 98.0, -0.09676664503519615, -2.8332664146627202, android.sensor.magnetic_field
1551581877485, 0.205169677734375, 0.2555084228515625, 2.5353240966796875, 0.2173614501953125, 0.1140899658203125, -0.265838623046875, -349.91607666015625, -22.85003662109375, -58.58917236328125, 99.15798950195312, 0.5654058456420898, 0.2082630693912506, 5.224137306213379, 0.5353149771690369, -0.05798028036952019, 9.795211791992188, 994.7427978515625, -0.018243322148919106, -0.016705989837646484, -0.7598965167999268, 98.0, -0.09676664503519615, -2.8332664146627202, android.sensor.accelerometer
1551581877486, 0.205169677734375, 0.2555084228515625, 2.5353240966796875, 0.52337646484375, 0.1155242919921875, -0.0316162109375, -349.91607666015625, -22.85003662109375, -58.58917236328125, 99.15798950195312, 0.5654058456420898, 0.2082630693912506, 5.224137306213379, 0.5353149771690369, -0.05798028036952019, 9.795211791992188, 994.7427978515625, -0.018243322148919106, -0.016705989837646484, -0.7598965167999268, 98.0, -0.09676664503519615, -2.8332664146627202, android.sensor.gyroscope
1551581877486, 0.205169677734375, 0.2555084228515625, 2.5353240966796875, 0.52337646484375, 0.1155242919921875, -0.0316162109375, -349.91607666015625, -22.85003662109375, -58.58917236328125, 99.15798950195312, 0.5654058456420898, 0.2082630693912506, 5.224137306213379, 0.4278547167778015, 0.425251305103302, 9.791435241699219, 994.7427978515625, -0.018243322148919106, -0.016705989837646484, -0.7598965167999268, 98.0, -0.09676664503519615, -2.8332664146627202, android.sensor.gravity
1551581877501, 0.205169677734375, 0.2555084228515625, 2.5353240966796875, 0.52337646484375, 0.1155242919921875, -0.0316162109375, -349.91607666015625, -22.85003662109375, -58.58917236328125, 99.15798950195312, 0.09410935640335083, 0.5702218413352966, 6.844882011413574, 0.4278547167778015, 0.425251305103302, 9.791435241699219, 994.7427978515625, -0.018243322148919106, -0.016705989837646484, -0.7598965167999268, 98.0, -0.09676664503519615, -2.8332664146627202, android.sensor.linear_acceleration
1551581877514, 0.205169677734375, 0.2555084228515625, 2.5353240966796875, 0.52337646484375, 0.1155242919921875, -0.0316162109375, -349.91607666015625, -22.85003662109375, -58.58917236328125, 99.15798950195312, 0.09410935640335083, 0.5702218413352966, 6.844882011413574, 0.4278547167778015, 0.425251305103302, 9.791435241699219, 994.7427978515625, 0.008610451593995094, -0.03293529525399208, -0.7604832649230957, 99.0, -3.5121746250007053, -1.7004605443524763, android.sensor.rotation_vector
1551581877514, 0.205169677734375, 0.2555084228515625, 2.5353240966796875, 0.52337646484375, 0.1155242919921875, -0.0316162109375, -349.91607666015625, -22.85003662109375, -58.58917236328125, 99.15798950195312, 0.09410935640335083, 0.5702218413352966, 6.844882011413574, 0.4278547167778015, 0.425251305103302, 9.791435241699219, 994.7427978515625, 0.008610451593995094, -0.03293529525399208, -0.7604832649230957, 99.0, -3.5121746250007053, -1.7004605443524763, android.sensor.orientation
1551581877560, 0.205169677734375, 0.2555084228515625, 2.5353240966796875, 0.52337646484375, 0.1155242919921875, -0.0316162109375, -349.91607666015625, -22.85003662109375, -58.58917236328125, 99.15798950195312, 0.09410935640335083, 0.5702218413352966, 6.844882011413574, 0.4278547167778015, 0.425251305103302, 9.791435241699219, 994.7427978515625, 0.008610451593995094, -0.03293529525399208, -0.7604832649230957, 99.0, -3.5121746250007053, -1.7004605443524763, android.sensor.pressure
1551581877569, 0.205169677734375, 0.2555084228515625, 2.5353240966796875, 0.52337646484375, 0.1155242919921875, -0.0316162109375, -348.38714599609375, -26.81121826171875, -61.077880859375, 99.15798950195312, 0.09410935640335083, 0.5702218413352966, 6.844882011413574, 0.4278547167778015, 0.425251305103302, 9.791435241699219, 994.7427978515625, 0.008610451593995094, -0.03293529525399208, -0.7604832649230957, 99.0, -3.5121746250007053, -1.7004605443524763, android.sensor.magnetic_field
1551581877581, -0.4164581298828125, -0.38458251953125, 4.3838653564453125, 0.52337646484375, 0.1155242919921875, -0.0316162109375, -348.38714599609375, -26.81121826171875, -61.077880859375, 99.15798950195312, 0.09410935640335083, 0.5702218413352966, 6.844882011413574, 0.4278547167778015, 0.425251305103302, 9.791435241699219, 994.7427978515625, 0.008610451593995094, -0.03293529525399208, -0.7604832649230957, 99.0, -3.5121746250007053, -1.7004605443524763, android.sensor.accelerometer
1551581877582, -0.4164581298828125, -0.38458251953125, 4.3838653564453125, 0.88677978515625, 0.3092041015625, 0.1236724853515625, -348.38714599609375, -26.81121826171875, -61.077880859375, 99.15798950195312, 0.09410935640335083, 0.5702218413352966, 6.844882011413574, 0.4278547167778015, 0.425251305103302, 9.791435241699219, 994.7427978515625, 0.008610451593995094, -0.03293529525399208, -0.7604832649230957, 99.0, -3.5121746250007053, -1.7004605443524763, android.sensor.gyroscope
1551581877582, -0.4164581298828125, -0.38458251953125, 4.3838653564453125, 0.88677978515625, 0.3092041015625, 0.1236724853515625, -348.38714599609375, -26.81121826171875, -61.077880859375, 99.15798950195312, 0.09410935640335083, 0.5702218413352966, 6.844882011413574, 0.13881269097328186, 1.2496131658554077, 9.729096412658691, 994.7427978515625, 0.008610451593995094, -0.03293529525399208, -0.7604832649230957, 99.0, -3.5121746250007053, -1.7004605443524763, android.sensor.gravity
1551581877595, -0.4164581298828125, -0.38458251953125, 4.3838653564453125, 0.88677978515625, 0.3092041015625, 0.1236724853515625, -348.38714599609375, -26.81121826171875, -61.077880859375, 99.15798950195312, 0.5425323247909546, 1.5082083940505981, 4.589664459228516, 0.13881269097328186, 1.2496131658554077, 9.729096412658691, 994.7427978515625, 0.008610451593995094, -0.03293529525399208, -0.7604832649230957, 99.0, -3.5121746250007053, -1.7004605443524763, android.sensor.linear_acceleration
1551581877605, -0.4164581298828125, -0.38458251953125, 4.3838653564453125, 0.88677978515625, 0.3092041015625, 0.1236724853515625, -348.38714599609375, -26.81121826171875, -61.077880859375, 99.15798950195312, 0.5425323247909546, 1.5082083940505981, 4.589664459228516, 0.13881269097328186, 1.2496131658554077, 9.729096412658691, 994.7427978515625, 0.04764620587229729, -0.06072550639510155, -0.7506085634231567, 97.0, -8.841135172995198, -0.47383930438861, android.sensor.rotation_vector
1551581877606, -0.4164581298828125, -0.38458251953125, 4.3838653564453125, 0.88677978515625, 0.3092041015625, 0.1236724853515625, -348.38714599609375, -26.81121826171875, -61.077880859375, 99.15798950195312, 0.5425323247909546, 1.5082083940505981, 4.589664459228516, 0.13881269097328186, 1.2496131658554077, 9.729096412658691, 994.7427978515625, 0.04764620587229729, -0.06072550639510155, -0.7506085634231567, 97.0, -8.841135172995198, -0.47383930438861, android.sensor.orientation
1551581877653, -0.4164581298828125, -0.38458251953125, 4.3838653564453125, 0.88677978515625, 0.3092041015625, 0.1236724853515625, -348.38714599609375, -26.81121826171875, -61.077880859375, 99.15798950195312, 0.5425323247909546, 1.5082083940505981, 4.589664459228516, 0.13881269097328186, 1.2496131658554077, 9.729096412658691, 994.747314453125, 0.04764620587229729, -0.06072550639510155, -0.7506085634231567, 97.0, -8.841135172995198, -0.47383930438861, android.sensor.pressure
1551581877665, -0.4164581298828125, -0.38458251953125, 4.3838653564453125, 0.88677978515625, 0.3092041015625, 0.1236724853515625, -347.12677001953125, -30.14068603515625, -65.2191162109375, 99.15798950195312, 0.5425323247909546, 1.5082083940505981, 4.589664459228516, 0.13881269097328186, 1.2496131658554077, 9.729096412658691, 994.747314453125, 0.04764620587229729, -0.06072550639510155, -0.7506085634231567, 97.0, -8.841135172995198, -0.47383930438861, android.sensor.magnetic_field
1551581877683, -1.0967864990234375, 2.489593505859375, 12.797882080078125, 0.88677978515625, 0.3092041015625, 0.1236724853515625, -347.12677001953125, -30.14068603515625, -65.2191162109375, 99.15798950195312, 0.5425323247909546, 1.5082083940505981, 4.589664459228516, 0.13881269097328186, 1.2496131658554077, 9.729096412658691, 994.747314453125, 0.04764620587229729, -0.06072550639510155, -0.7506085634231567, 97.0, -8.841135172995198, -0.47383930438861, android.sensor.accelerometer
1551581877683, -1.0967864990234375, 2.489593505859375, 12.797882080078125, 0.2571563720703125, 0.024810791015625, 0.2396392822265625, -347.12677001953125, -30.14068603515625, -65.2191162109375, 99.15798950195312, 0.5425323247909546, 1.5082083940505981, 4.589664459228516, 0.13881269097328186, 1.2496131658554077, 9.729096412658691, 994.747314453125, 0.04764620587229729, -0.06072550639510155, -0.7506085634231567, 97.0, -8.841135172995198, -0.47383930438861, android.sensor.gyroscope
1551581877683, -1.0967864990234375, 2.489593505859375, 12.797882080078125, 0.2571563720703125, 0.024810791015625, 0.2396392822265625, -347.12677001953125, -30.14068603515625, -65.2191162109375, 99.15798950195312, 0.5425323247909546, 1.5082083940505981, 4.589664459228516, 0.04408596083521843, 1.5258336067199707, 9.690510749816895, 994.747314453125, 0.04764620587229729, -0.06072550639510155, -0.7506085634231567, 97.0, -8.841135172995198, -0.47383930438861, android.sensor.gravity
1551581877700, -1.0967864990234375, 2.489593505859375, 12.797882080078125, 0.2571563720703125, 0.024810791015625, 0.2396392822265625, -347.12677001953125, -30.14068603515625, -65.2191162109375, 99.15798950195312, 0.8889424800872803, -1.0764007568359375, -5.730467796325684, 0.04408596083521843, 1.5258336067199707, 9.690510749816895, 994.747314453125, 0.04764620587229729, -0.06072550639510155, -0.7506085634231567, 97.0, -8.841135172995198, -0.47383930438861, android.sensor.linear_acceleration
1551581877708, -1.0967864990234375, 2.489593505859375, 12.797882080078125, 0.2571563720703125, 0.024810791015625, 0.2396392822265625, -347.12677001953125, -30.14068603515625, -65.2191162109375, 99.15798950195312, 0.8889424800872803, -1.0764007568359375, -5.730467796325684, 0.04408596083521843, 1.5258336067199707, 9.690510749816895, 994.747314453125, 0.031209317967295647, -0.07034952938556671, -0.7487910985946655, 97.0, -8.421011944695007, -2.658731816037034, android.sensor.rotation_vector
1551581877709, -1.0967864990234375, 2.489593505859375, 12.797882080078125, 0.2571563720703125, 0.024810791015625, 0.2396392822265625, -347.12677001953125, -30.14068603515625, -65.2191162109375, 99.15798950195312, 0.8889424800872803, -1.0764007568359375, -5.730467796325684, 0.04408596083521843, 1.5258336067199707, 9.690510749816895, 994.747314453125, 0.031209317967295647, -0.07034952938556671, -0.7487910985946655, 97.0, -8.421011944695007, -2.658731816037034, android.sensor.orientation
1551581877761, -1.0967864990234375, 2.489593505859375, 12.797882080078125, 0.2571563720703125, 0.024810791015625, 0.2396392822265625, -347.12677001953125, -30.14068603515625, -65.2191162109375, 99.15798950195312, 0.8889424800872803, -1.0764007568359375, -5.730467796325684, 0.04408596083521843, 1.5258336067199707, 9.690510749816895, 994.7484741210938, 0.031209317967295647, -0.07034952938556671, -0.7487910985946655, 97.0, -8.421011944695007, -2.658731816037034, android.sensor.pressure
1551581877762, -1.0967864990234375, 2.489593505859375, 12.797882080078125, 0.2571563720703125, 0.024810791015625, 0.2396392822265625, -348.89678955078125, -24.7100830078125, -68.0389404296875, 99.15798950195312, 0.8889424800872803, -1.0764007568359375, -5.730467796325684, 0.04408596083521843, 1.5258336067199707, 9.690510749816895, 994.7484741210938, 0.031209317967295647, -0.07034952938556671, -0.7487910985946655, 97.0, -8.421011944695007, -2.658731816037034, android.sensor.magnetic_field
1551581877782, 0.607696533203125, 0.4150543212890625, 21.034942626953125, 0.2571563720703125, 0.024810791015625, 0.2396392822265625, -348.89678955078125, -24.7100830078125, -68.0389404296875, 99.15798950195312, 0.8889424800872803, -1.0764007568359375, -5.730467796325684, 0.04408596083521843, 1.5258336067199707, 9.690510749816895, 994.7484741210938, 0.031209317967295647, -0.07034952938556671, -0.7487910985946655, 97.0, -8.421011944695007, -2.658731816037034, android.sensor.accelerometer
1551581877782, 0.607696533203125, 0.4150543212890625, 21.034942626953125, -0.876678466796875, -0.269866943359375, 0.276611328125, -348.89678955078125, -24.7100830078125, -68.0389404296875, 99.15798950195312, 0.8889424800872803, -1.0764007568359375, -5.730467796325684, 0.04408596083521843, 1.5258336067199707, 9.690510749816895, 994.7484741210938, 0.031209317967295647, -0.07034952938556671, -0.7487910985946655, 97.0, -8.421011944695007, -2.658731816037034, android.sensor.gyroscope
1551581877782, 0.607696533203125, 0.4150543212890625, 21.034942626953125, -0.876678466796875, -0.269866943359375, 0.276611328125, -348.89678955078125, -24.7100830078125, -68.0389404296875, 99.15798950195312, 0.8889424800872803, -1.0764007568359375, -5.730467796325684, 0.3157334327697754, 0.6959890723228455, 9.780184745788574, 994.7484741210938, 0.031209317967295647, -0.07034952938556671, -0.7487910985946655, 97.0, -8.421011944695007, -2.658731816037034, android.sensor.gravity
1551581877798, 0.607696533203125, 0.4150543212890625, 21.034942626953125, -0.876678466796875, -0.269866943359375, 0.276611328125, -348.89678955078125, -24.7100830078125, -68.0389404296875, 99.15798950195312, -0.3000056743621826, -0.0207366943359375, -11.09621524810791, 0.3157334327697754, 0.6959890723228455, 9.780184745788574, 994.7484741210938, 0.031209317967295647, -0.07034952938556671, -0.7487910985946655, 97.0, -8.421011944695007, -2.658731816037034, android.sensor.linear_acceleration
1551581877810, 0.607696533203125, 0.4150543212890625, 21.034942626953125, -0.876678466796875, -0.269866943359375, 0.276611328125, -348.89678955078125, -24.7100830078125, -68.0389404296875, 99.15798950195312, -0.3000056743621826, -0.0207366943359375, -11.09621524810791, 0.3157334327697754, 0.6959890723228455, 9.780184745788574, 994.7484741210938, 0.0044369627721607685, -0.047879330813884735, -0.7367110848426819, 94.0, -4.389246473398036, -3.3377659579878416, android.sensor.rotation_vector
1551581877810, 0.607696533203125, 0.4150543212890625, 21.034942626953125, -0.876678466796875, -0.269866943359375, 0.276611328125, -348.89678955078125, -24.7100830078125, -68.0389404296875, 99.15798950195312, -0.3000056743621826, -0.0207366943359375, -11.09621524810791, 0.3157334327697754, 0.6959890723228455, 9.780184745788574, 994.7484741210938, 0.0044369627721607685, -0.047879330813884735, -0.7367110848426819, 94.0, -4.389246473398036, -3.3377659579878416, android.sensor.orientation
1551581877859, 0.607696533203125, 0.4150543212890625, 21.034942626953125, -0.876678466796875, -0.269866943359375, 0.276611328125, -348.89678955078125, -24.7100830078125, -68.0389404296875, 99.15798950195312, -0.3000056743621826, -0.0207366943359375, -11.09621524810791, 0.3157334327697754, 0.6959890723228455, 9.780184745788574, 994.7484741210938, 0.0044369627721607685, -0.047879330813884735, -0.7367110848426819, 94.0, -4.389246473398036, -3.3377659579878416, android.sensor.pressure
1551581877859, 0.607696533203125, 0.4150543212890625, 21.034942626953125, -0.876678466796875, -0.269866943359375, 0.276611328125, -350.81634521484375, -20.989990234375, -64.04876708984375, 99.15798950195312, -0.3000056743621826, -0.0207366943359375, -11.09621524810791, 0.3157334327697754, 0.6959890723228455, 9.780184745788574, 994.7484741210938, 0.0044369627721607685, -0.047879330813884735, -0.7367110848426819, 94.0, -4.389246473398036, -3.3377659579878416, android.sensor.magnetic_field
1551581877880, 1.2135162353515625, 2.2811431884765625, 15.187591552734375, -0.876678466796875, -0.269866943359375, 0.276611328125, -350.81634521484375, -20.989990234375, -64.04876708984375, 99.15798950195312, -0.3000056743621826, -0.0207366943359375, -11.09621524810791, 0.3157334327697754, 0.6959890723228455, 9.780184745788574, 994.7484741210938, 0.0044369627721607685, -0.047879330813884735, -0.7367110848426819, 94.0, -4.389246473398036, -3.3377659579878416, android.sensor.accelerometer
1551581877881, 1.2135162353515625, 2.2811431884765625, 15.187591552734375, -0.876678466796875, -0.269866943359375, 0.276611328125, -350.81634521484375, -20.989990234375, -64.04876708984375, 99.15798950195312, -0.3000056743621826, -0.0207366943359375, -11.09621524810791, 0.7213795185089111, 0.03120531141757965, 9.783391952514648, 994.7484741210938, 0.0044369627721607685, -0.047879330813884735, -0.7367110848426819, 94.0, -4.389246473398036, -3.3377659579878416, android.sensor.gravity
1551581877882, 1.2135162353515625, 2.2811431884765625, 15.187591552734375, -0.77606201171875, -0.3647003173828125, -0.11639404296875, -350.81634521484375, -20.989990234375, -64.04876708984375, 99.15798950195312, -0.3000056743621826, -0.0207366943359375, -11.09621524810791, 0.7213795185089111, 0.03120531141757965, 9.783391952514648, 994.7484741210938, 0.0044369627721607685, -0.047879330813884735, -0.7367110848426819, 94.0, -4.389246473398036, -3.3377659579878416, android.sensor.gyroscope
1551581877895, 1.2135162353515625, 2.2811431884765625, 15.187591552734375, -0.77606201171875, -0.3647003173828125, -0.11639404296875, -350.81634521484375, -20.989990234375, -64.04876708984375, 99.15798950195312, -0.27352356910705566, -1.4177498817443848, -3.618777275085449, 0.7213795185089111, 0.03120531141757965, 9.783391952514648, 994.7484741210938, 0.0044369627721607685, -0.047879330813884735, -0.7367110848426819, 94.0, -4.389246473398036, -3.3377659579878416, android.sensor.linear_acceleration
1551581877909, 1.2135162353515625, 2.2811431884765625, 15.187591552734375, -0.77606201171875, -0.3647003173828125, -0.11639404296875, -350.81634521484375, -20.989990234375, -64.04876708984375, 99.15798950195312, -0.27352356910705566, -1.4177498817443848, -3.618777275085449, 0.7213795185089111, 0.03120531141757965, 9.783391952514648, 994.7484741210938, -0.03658377379179001, -0.023704931139945984, -0.7470242381095886, 96.0, 0.7517741625075622, -4.940169958738087, android.sensor.rotation_vector
1551581877909, 1.2135162353515625, 2.2811431884765625, 15.187591552734375, -0.77606201171875, -0.3647003173828125, -0.11639404296875, -350.81634521484375, -20.989990234375, -64.04876708984375, 99.15798950195312, -0.27352356910705566, -1.4177498817443848, -3.618777275085449, 0.7213795185089111, 0.03120531141757965, 9.783391952514648, 994.7484741210938, -0.03658377379179001, -0.023704931139945984, -0.7470242381095886, 96.0, 0.7517741625075622, -4.940169958738087, android.sensor.orientation
1551581877961, 1.2135162353515625, 2.2811431884765625, 15.187591552734375, -0.77606201171875, -0.3647003173828125, -0.11639404296875, -352.10723876953125, -18.59130859375, -58.19854736328125, 99.15798950195312, -0.27352356910705566, -1.4177498817443848, -3.618777275085449, 0.7213795185089111, 0.03120531141757965, 9.783391952514648, 994.7484741210938, -0.03658377379179001, -0.023704931139945984, -0.7470242381095886, 96.0, 0.7517741625075622, -4.940169958738087, android.sensor.magnetic_field
1551581877961, 1.2135162353515625, 2.2811431884765625, 15.187591552734375, -0.77606201171875, -0.3647003173828125, -0.11639404296875, -352.10723876953125, -18.59130859375, -58.19854736328125, 99.15798950195312, -0.27352356910705566, -1.4177498817443848, -3.618777275085449, 0.7213795185089111, 0.03120531141757965, 9.783391952514648, 994.7385864257812, -0.03658377379179001, -0.023704931139945984, -0.7470242381095886, 96.0, 0.7517741625075622, -4.940169958738087, android.sensor.pressure
1551581877979, 1.2135162353515625, 2.2811431884765625, 15.187591552734375, -0.77606201171875, -0.3647003173828125, -0.11639404296875, -352.10723876953125, -18.59130859375, -58.19854736328125, 99.15798950195312, -0.27352356910705566, -1.4177498817443848, -3.618777275085449, 0.587583601474762, -0.07559532672166824, 9.792095184326172, 994.7385864257812, -0.03658377379179001, -0.023704931139945984, -0.7470242381095886, 96.0, 0.7517741625075622, -4.940169958738087, android.sensor.gravity
1551581877980, 1.2705841064453125, 0.0318603515625, 5.489532470703125, -0.77606201171875, -0.3647003173828125, -0.11639404296875, -352.10723876953125, -18.59130859375, -58.19854736328125, 99.15798950195312, -0.27352356910705566, -1.4177498817443848, -3.618777275085449, 0.587583601474762, -0.07559532672166824, 9.792095184326172, 994.7385864257812, -0.03658377379179001, -0.023704931139945984, -0.7470242381095886, 96.0, 0.7517741625075622, -4.940169958738087, android.sensor.accelerometer
1551581877980, 1.2705841064453125, 0.0318603515625, 5.489532470703125, -0.0692596435546875, 0.21124267578125, -0.32684326171875, -352.10723876953125, -18.59130859375, -58.19854736328125, 99.15798950195312, -0.27352356910705566, -1.4177498817443848, -3.618777275085449, 0.587583601474762, -0.07559532672166824, 9.792095184326172, 994.7385864257812, -0.03658377379179001, -0.023704931139945984, -0.7470242381095886, 96.0, 0.7517741625075622, -4.940169958738087, android.sensor.gyroscope
1551581877995, 1.2705841064453125, 0.0318603515625, 5.489532470703125, -0.0692596435546875, 0.21124267578125, -0.32684326171875, -352.10723876953125, -18.59130859375, -58.19854736328125, 99.15798950195312, -0.48514020442962646, -0.2595883905887604, 5.791543960571289, 0.587583601474762, -0.07559532672166824, 9.792095184326172, 994.7385864257812, -0.03658377379179001, -0.023704931139945984, -0.7470242381095886, 96.0, 0.7517741625075622, -4.940169958738087, android.sensor.linear_acceleration
1551581878005, 1.2705841064453125, 0.0318603515625, 5.489532470703125, -0.0692596435546875, 0.21124267578125, -0.32684326171875, -352.10723876953125, -18.59130859375, -58.19854736328125, 99.15798950195312, -0.48514020442962646, -0.2595883905887604, 5.791543960571289, 0.587583601474762, -0.07559532672166824, 9.792095184326172, 994.7385864257812, -0.019503692165017128, -0.018051471561193466, -0.7588461637496948, 98.0, -0.11535941380185595, -3.0434870441544306, android.sensor.rotation_vector
1551581878005, 1.2705841064453125, 0.0318603515625, 5.489532470703125, -0.0692596435546875, 0.21124267578125, -0.32684326171875, -352.10723876953125, -18.59130859375, -58.19854736328125, 99.15798950195312, -0.48514020442962646, -0.2595883905887604, 5.791543960571289, 0.587583601474762, -0.07559532672166824, 9.792095184326172, 994.7385864257812, -0.019503692165017128, -0.018051471561193466, -0.7588461637496948, 98.0, -0.11535941380185595, -3.0434870441544306, android.sensor.orientation
1551581878053, 1.2705841064453125, 0.0318603515625, 5.489532470703125, -0.0692596435546875, 0.21124267578125, -0.32684326171875, -350.69732666015625, -23.21014404296875, -58.1085205078125, 99.15798950195312, -0.48514020442962646, -0.2595883905887604, 5.791543960571289, 0.587583601474762, -0.07559532672166824, 9.792095184326172, 994.7385864257812, -0.019503692165017128, -0.018051471561193466, -0.7588461637496948, 98.0, -0.11535941380185595, -3.0434870441544306, android.sensor.magnetic_field
1551581878054, 1.2705841064453125, 0.0318603515625, 5.489532470703125, -0.0692596435546875, 0.21124267578125, -0.32684326171875, -350.69732666015625, -23.21014404296875, -58.1085205078125, 99.15798950195312, -0.48514020442962646, -0.2595883905887604, 5.791543960571289, 0.587583601474762, -0.07559532672166824, 9.792095184326172, 994.7351684570312, -0.019503692165017128, -0.018051471561193466, -0.7588461637496948, 98.0, -0.11535941380185595, -3.0434870441544306, android.sensor.pressure
1551581878076, -0.5834197998046875, 0.1591033935546875, 2.6615447998046875, -0.0692596435546875, 0.21124267578125, -0.32684326171875, -350.69732666015625, -23.21014404296875, -58.1085205078125, 99.15798950195312, -0.48514020442962646, -0.2595883905887604, 5.791543960571289, 0.587583601474762, -0.07559532672166824, 9.792095184326172, 994.7351684570312, -0.019503692165017128, -0.018051471561193466, -0.7588461637496948, 98.0, -0.11535941380185595, -3.0434870441544306, android.sensor.accelerometer
1551581878077, -0.5834197998046875, 0.1591033935546875, 2.6615447998046875, 0.538665771484375, -0.019744873046875, 0.0557708740234375, -350.69732666015625, -23.21014404296875, -58.1085205078125, 99.15798950195312, -0.48514020442962646, -0.2595883905887604, 5.791543960571289, 0.587583601474762, -0.07559532672166824, 9.792095184326172, 994.7351684570312, -0.019503692165017128, -0.018051471561193466, -0.7588461637496948, 98.0, -0.11535941380185595, -3.0434870441544306, android.sensor.gyroscope
1551581878077, -0.5834197998046875, 0.1591033935546875, 2.6615447998046875, 0.538665771484375, -0.019744873046875, 0.0557708740234375, -350.69732666015625, -23.21014404296875, -58.1085205078125, 99.15798950195312, -0.48514020442962646, -0.2595883905887604, 5.791543960571289, 0.6013811230659485, 0.38897886872291565, 9.783821105957031, 994.7351684570312, -0.019503692165017128, -0.018051471561193466, -0.7588461637496948, 98.0, -0.11535941380185595, -3.0434870441544306, android.sensor.gravity
1551581878088, -0.5834197998046875, 0.1591033935546875, 2.6615447998046875, 0.538665771484375, -0.019744873046875, 0.0557708740234375, -350.69732666015625, -23.21014404296875, -58.1085205078125, 99.15798950195312, 0.9661045074462891, 0.5372712016105652, 6.534614562988281, 0.6013811230659485, 0.38897886872291565, 9.783821105957031, 994.7351684570312, -0.019503692165017128, -0.018051471561193466, -0.7588461637496948, 98.0, -0.11535941380185595, -3.0434870441544306, android.sensor.linear_acceleration
1551581878094, -0.5834197998046875, 0.1591033935546875, 2.6615447998046875, 0.538665771484375, -0.019744873046875, 0.0557708740234375, -350.69732666015625, -23.21014404296875, -58.1085205078125, 99.15798950195312, 0.9661045074462891, 0.5372712016105652, 6.534614562988281, 0.6013811230659485, 0.38897886872291565, 9.783821105957031, 994.7351684570312, 0.005781861487776041, -0.04462737962603569, -0.7531682848930359, 97.0, -4.290476388470951, -2.866410974827265, android.sensor.rotation_vector
1551581878094, -0.5834197998046875, 0.1591033935546875, 2.6615447998046875, 0.538665771484375, -0.019744873046875, 0.0557708740234375, -350.69732666015625, -23.21014404296875, -58.1085205078125, 99.15798950195312, 0.9661045074462891, 0.5372712016105652, 6.534614562988281, 0.6013811230659485, 0.38897886872291565, 9.783821105957031, 994.7351684570312, 0.005781861487776041, -0.04462737962603569, -0.7531682848930359, 97.0, -4.290476388470951, -2.866410974827265, android.sensor.orientation
1551581878147, -0.5834197998046875, 0.1591033935546875, 2.6615447998046875, 0.538665771484375, -0.019744873046875, 0.0557708740234375, -348.20709228515625, -29.78057861328125, -58.88824462890625, 99.15798950195312, 0.9661045074462891, 0.5372712016105652, 6.534614562988281, 0.6013811230659485, 0.38897886872291565, 9.783821105957031, 994.7351684570312, 0.005781861487776041, -0.04462737962603569, -0.7531682848930359, 97.0, -4.290476388470951, -2.866410974827265, android.sensor.magnetic_field
1551581878152, -0.5834197998046875, 0.1591033935546875, 2.6615447998046875, 0.538665771484375, -0.019744873046875, 0.0557708740234375, -348.20709228515625, -29.78057861328125, -58.88824462890625, 99.15798950195312, 0.9661045074462891, 0.5372712016105652, 6.534614562988281, 0.6013811230659485, 0.38897886872291565, 9.783821105957031, 994.7351684570312, 0.005781861487776041, -0.04462737962603569, -0.7531682848930359, 97.0, -4.290476388470951, -2.866410974827265, android.sensor.pressure
1551581878171, -0.8211212158203125, -0.3591766357421875, 2.54229736328125, 0.538665771484375, -0.019744873046875, 0.0557708740234375, -348.20709228515625, -29.78057861328125, -58.88824462890625, 99.15798950195312, 0.9661045074462891, 0.5372712016105652, 6.534614562988281, 0.6013811230659485, 0.38897886872291565, 9.783821105957031, 994.7351684570312, 0.005781861487776041, -0.04462737962603569, -0.7531682848930359, 97.0, -4.290476388470951, -2.866410974827265, android.sensor.accelerometer
1551581878171, -0.8211212158203125, -0.3591766357421875, 2.54229736328125, 1.0787811279296875, 0.4383087158203125, 0.0160675048828125, -348.20709228515625, -29.78057861328125, -58.88824462890625, 99.15798950195312, 0.9661045074462891, 0.5372712016105652, 6.534614562988281, 0.6013811230659485, 0.38897886872291565, 9.783821105957031, 994.7351684570312, 0.005781861487776041, -0.04462737962603569, -0.7531682848930359, 97.0, -4.290476388470951, -2.866410974827265, android.sensor.gyroscope
1551581878172, -0.8211212158203125, -0.3591766357421875, 2.54229736328125, 1.0787811279296875, 0.4383087158203125, 0.0160675048828125, -348.20709228515625, -29.78057861328125, -58.88824462890625, 99.15798950195312, 0.9661045074462891, 0.5372712016105652, 6.534614562988281, 0.1734548807144165, 1.436441421508789, 9.702713966369629, 994.7351684570312, 0.005781861487776041, -0.04462737962603569, -0.7531682848930359, 97.0, -4.290476388470951, -2.866410974827265, android.sensor.gravity
1551581878184, -0.8211212158203125, -0.3591766357421875, 2.54229736328125, 1.0787811279296875, 0.4383087158203125, 0.0160675048828125, -348.20709228515625, -29.78057861328125, -58.88824462890625, 99.15798950195312, 0.8645201921463013, 1.9468284845352173, 6.527008056640625, 0.1734548807144165, 1.436441421508789, 9.702713966369629, 994.7351684570312, 0.005781861487776041, -0.04462737962603569, -0.7531682848930359, 97.0, -4.290476388470951, -2.866410974827265, android.sensor.linear_acceleration
1551581878198, -0.8211212158203125, -0.3591766357421875, 2.54229736328125, 1.0787811279296875, 0.4383087158203125, 0.0160675048828125, -348.20709228515625, -29.78057861328125, -58.88824462890625, 99.15798950195312, 0.8645201921463013, 1.9468284845352173, 6.527008056640625, 0.1734548807144165, 1.436441421508789, 9.702713966369629, 994.7351684570312, 0.05414886772632599, -0.06593073159456253, -0.7459361553192139, 96.0, -9.781665882084294, -0.3671803509701602, android.sensor.rotation_vector
1551581878199, -0.8211212158203125, -0.3591766357421875, 2.54229736328125, 1.0787811279296875, 0.4383087158203125, 0.0160675048828125, -348.20709228515625, -29.78057861328125, -58.88824462890625, 99.15798950195312, 0.8645201921463013, 1.9468284845352173, 6.527008056640625, 0.1734548807144165, 1.436441421508789, 9.702713966369629, 994.7351684570312, 0.05414886772632599, -0.06593073159456253, -0.7459361553192139, 96.0, -9.781665882084294, -0.3671803509701602, android.sensor.orientation
1551581878252, -0.8211212158203125, -0.3591766357421875, 2.54229736328125, 1.0787811279296875, 0.4383087158203125, 0.0160675048828125, -345.56732177734375, -33.5601806640625, -62.78839111328125, 99.15798950195312, 0.8645201921463013, 1.9468284845352173, 6.527008056640625, 0.1734548807144165, 1.436441421508789, 9.702713966369629, 994.7351684570312, 0.05414886772632599, -0.06593073159456253, -0.7459361553192139, 96.0, -9.781665882084294, -0.3671803509701602, android.sensor.magnetic_field
1551581878257, -0.8211212158203125, -0.3591766357421875, 2.54229736328125, 1.0787811279296875, 0.4383087158203125, 0.0160675048828125, -345.56732177734375, -33.5601806640625, -62.78839111328125, 99.15798950195312, 0.8645201921463013, 1.9468284845352173, 6.527008056640625, 0.1734548807144165, 1.436441421508789, 9.702713966369629, 994.7301025390625, 0.05414886772632599, -0.06593073159456253, -0.7459361553192139, 96.0, -9.781665882084294, -0.3671803509701602, android.sensor.pressure
1551581878269, -0.0912628173828125, 2.338836669921875, 9.856643676757812, 1.0787811279296875, 0.4383087158203125, 0.0160675048828125, -345.56732177734375, -33.5601806640625, -62.78839111328125, 99.15798950195312, 0.8645201921463013, 1.9468284845352173, 6.527008056640625, 0.1734548807144165, 1.436441421508789, 9.702713966369629, 994.7301025390625, 0.05414886772632599, -0.06593073159456253, -0.7459361553192139, 96.0, -9.781665882084294, -0.3671803509701602, android.sensor.accelerometer
1551581878270, -0.0912628173828125, 2.338836669921875, 9.856643676757812, 1.0787811279296875, 0.4383087158203125, 0.0160675048828125, -345.56732177734375, -33.5601806640625, -62.78839111328125, 99.15798950195312, 0.8645201921463013, 1.9468284845352173, 6.527008056640625, -0.0761784091591835, 1.9198274612426758, 9.62000846862793, 994.7301025390625, 0.05414886772632599, -0.06593073159456253, -0.7459361553192139, 96.0, -9.781665882084294, -0.3671803509701602, android.sensor.gravity
1551581878270, -0.0912628173828125, 2.338836669921875, 9.856643676757812, 0.489288330078125, 0.3381195068359375, 0.285064697265625, -345.56732177734375, -33.5601806640625, -62.78839111328125, 99.15798950195312, 0.8645201921463013, 1.9468284845352173, 6.527008056640625, -0.0761784091591835, 1.9198274612426758, 9.62000846862793, 994.7301025390625, 0.05414886772632599, -0.06593073159456253, -0.7459361553192139, 96.0, -9.781665882084294, -0.3671803509701602, android.sensor.gyroscope
1551581878288, -0.0912628173828125, 2.338836669921875, 9.856643676757812, 0.489288330078125, 0.3381195068359375, 0.285064697265625, -345.56732177734375, -33.5601806640625, -62.78839111328125, 99.15798950195312, -0.32519882917404175, -0.8131804466247559, -2.226809501647949, -0.0761784091591835, 1.9198274612426758, 9.62000846862793, 994.7301025390625, 0.05414886772632599, -0.06593073159456253, -0.7459361553192139, 96.0, -9.781665882084294, -0.3671803509701602, android.sensor.linear_acceleration
1551581878292, -0.0912628173828125, 2.338836669921875, 9.856643676757812, 0.489288330078125, 0.3381195068359375, 0.285064697265625, -345.56732177734375, -33.5601806640625, -62.78839111328125, 99.15798950195312, -0.32519882917404175, -0.8131804466247559, -2.226809501647949, -0.0761784091591835, 1.9198274612426758, 9.62000846862793, 994.7301025390625, 0.08460764586925507, -0.06935358792543411, -0.7357900142669678, 95.0, -12.424237043658254, 1.866430299202378, android.sensor.rotation_vector
1551581878293, -0.0912628173828125, 2.338836669921875, 9.856643676757812, 0.489288330078125, 0.3381195068359375, 0.285064697265625, -345.56732177734375, -33.5601806640625, -62.78839111328125, 99.15798950195312, -0.32519882917404175, -0.8131804466247559, -2.226809501647949, -0.0761784091591835, 1.9198274612426758, 9.62000846862793, 994.7301025390625, 0.08460764586925507, -0.06935358792543411, -0.7357900142669678, 95.0, -12.424237043658254, 1.866430299202378, android.sensor.orientation
1551581878351, -0.0912628173828125, 2.338836669921875, 9.856643676757812, 0.489288330078125, 0.3381195068359375, 0.285064697265625, -342.205810546875, -31.671142578125, -67.2882080078125, 99.15798950195312, -0.32519882917404175, -0.8131804466247559, -2.226809501647949, -0.0761784091591835, 1.9198274612426758, 9.62000846862793, 994.7301025390625, 0.08460764586925507, -0.06935358792543411, -0.7357900142669678, 95.0, -12.424237043658254, 1.866430299202378, android.sensor.magnetic_field
1551581878359, -0.0912628173828125, 2.338836669921875, 9.856643676757812, 0.489288330078125, 0.3381195068359375, 0.285064697265625, -342.205810546875, -31.671142578125, -67.2882080078125, 99.15798950195312, -0.32519882917404175, -0.8131804466247559, -2.226809501647949, -0.0761784091591835, 1.9198274612426758, 9.62000846862793, 994.7301025390625, 0.08460764586925507, -0.06935358792543411, -0.7357900142669678, 95.0, -12.424237043658254, 1.866430299202378, android.sensor.pressure
1551581878371, -0.0912628173828125, 2.338836669921875, 9.856643676757812, 0.489288330078125, 0.3381195068359375, 0.285064697265625, -342.205810546875, -31.671142578125, -67.2882080078125, 99.15798950195312, -0.32519882917404175, -0.8131804466247559, -2.226809501647949, -0.5011183023452759, 1.7499713897705078, 9.639636993408203, 994.7301025390625, 0.08460764586925507, -0.06935358792543411, -0.7357900142669678, 95.0, -12.424237043658254, 1.866430299202378, android.sensor.gravity
1551581878371, -0.632232666015625, 3.612335205078125, 19.747299194335938, 0.489288330078125, 0.3381195068359375, 0.285064697265625, -342.205810546875, -31.671142578125, -67.2882080078125, 99.15798950195312, -0.32519882917404175, -0.8131804466247559, -2.226809501647949, -0.5011183023452759, 1.7499713897705078, 9.639636993408203, 994.7301025390625, 0.08460764586925507, -0.06935358792543411, -0.7357900142669678, 95.0, -12.424237043658254, 1.866430299202378, android.sensor.accelerometer
1551581878372, -0.632232666015625, 3.612335205078125, 19.747299194335938, -0.2196807861328125, 0.387939453125, -0.1745758056640625, -342.205810546875, -31.671142578125, -67.2882080078125, 99.15798950195312, -0.32519882917404175, -0.8131804466247559, -2.226809501647949, -0.5011183023452759, 1.7499713897705078, 9.639636993408203, 994.7301025390625, 0.08460764586925507, -0.06935358792543411, -0.7357900142669678, 95.0, -12.424237043658254, 1.866430299202378, android.sensor.gyroscope
1551581878378, -0.632232666015625, 3.612335205078125, 19.747299194335938, -0.2196807861328125, 0.387939453125, -0.1745758056640625, -342.205810546875, -31.671142578125, -67.2882080078125, 99.15798950195312, 0.3874092102050781, -1.813238501548767, -10.738065719604492, -0.5011183023452759, 1.7499713897705078, 9.639636993408203, 994.7301025390625, 0.08460764586925507, -0.06935358792543411, -0.7357900142669678, 95.0, -12.424237043658254, 1.866430299202378, android.sensor.linear_acceleration
1551581878395, -0.632232666015625, 3.612335205078125, 19.747299194335938, -0.2196807861328125, 0.387939453125, -0.1745758056640625, -342.205810546875, -31.671142578125, -67.2882080078125, 99.15798950195312, 0.3874092102050781, -1.813238501548767, -10.738065719604492, -0.5011183023452759, 1.7499713897705078, 9.639636993408203, 994.7301025390625, 0.07343707233667374, -0.04411459341645241, -0.7422164678573608, 96.0, -9.387273683934833, 2.926422510978878, android.sensor.rotation_vector
1551581878396, -0.632232666015625, 3.612335205078125, 19.747299194335938, -0.2196807861328125, 0.387939453125, -0.1745758056640625, -342.205810546875, -31.671142578125, -67.2882080078125, 99.15798950195312, 0.3874092102050781, -1.813238501548767, -10.738065719604492, -0.5011183023452759, 1.7499713897705078, 9.639636993408203, 994.7301025390625, 0.07343707233667374, -0.04411459341645241, -0.7422164678573608, 96.0, -9.387273683934833, 2.926422510978878, android.sensor.orientation
1551581878451, -0.632232666015625, 3.612335205078125, 19.747299194335938, -0.2196807861328125, 0.387939453125, -0.1745758056640625, -343.25714111328125, -26.78070068359375, -67.108154296875, 99.15798950195312, 0.3874092102050781, -1.813238501548767, -10.738065719604492, -0.5011183023452759, 1.7499713897705078, 9.639636993408203, 994.7301025390625, 0.07343707233667374, -0.04411459341645241, -0.7422164678573608, 96.0, -9.387273683934833, 2.926422510978878, android.sensor.magnetic_field
1551581878460, -0.632232666015625, 3.612335205078125, 19.747299194335938, -0.2196807861328125, 0.387939453125, -0.1745758056640625, -343.25714111328125, -26.78070068359375, -67.108154296875, 99.15798950195312, 0.3874092102050781, -1.813238501548767, -10.738065719604492, -0.5011183023452759, 1.7499713897705078, 9.639636993408203, 994.7357177734375, 0.07343707233667374, -0.04411459341645241, -0.7422164678573608, 96.0, -9.387273683934833, 2.926422510978878, android.sensor.pressure
1551581878463, -0.23370361328125, 3.3808441162109375, 20.626007080078125, -0.2196807861328125, 0.387939453125, -0.1745758056640625, -343.25714111328125, -26.78070068359375, -67.108154296875, 99.15798950195312, 0.3874092102050781, -1.813238501548767, -10.738065719604492, -0.5011183023452759, 1.7499713897705078, 9.639636993408203, 994.7357177734375, 0.07343707233667374, -0.04411459341645241, -0.7422164678573608, 96.0, -9.387273683934833, 2.926422510978878, android.sensor.accelerometer
1551581878464, -0.23370361328125, 3.3808441162109375, 20.626007080078125, -1.067657470703125, -0.51123046875, -0.260711669921875, -343.25714111328125, -26.78070068359375, -67.108154296875, 99.15798950195312, 0.3874092102050781, -1.813238501548767, -10.738065719604492, -0.5011183023452759, 1.7499713897705078, 9.639636993408203, 994.7357177734375, 0.07343707233667374, -0.04411459341645241, -0.7422164678573608, 96.0, -9.387273683934833, 2.926422510978878, android.sensor.gyroscope
1551581878464, -0.23370361328125, 3.3808441162109375, 20.626007080078125, -1.067657470703125, -0.51123046875, -0.260711669921875, -343.25714111328125, -26.78070068359375, -67.108154296875, 99.15798950195312, 0.3874092102050781, -1.813238501548767, -10.738065719604492, -0.04235493019223213, 0.7848760485649109, 9.778459548950195, 994.7357177734375, 0.07343707233667374, -0.04411459341645241, -0.7422164678573608, 96.0, -9.387273683934833, 2.926422510978878, android.sensor.gravity
1551581878483, -0.23370361328125, 3.3808441162109375, 20.626007080078125, -1.067657470703125, -0.51123046875, -0.260711669921875, -343.25714111328125, -26.78070068359375, -67.108154296875, 99.15798950195312, 0.014044351875782013, -2.2918522357940674, -9.8392333984375, -0.04235493019223213, 0.7848760485649109, 9.778459548950195, 994.7357177734375, 0.07343707233667374, -0.04411459341645241, -0.7422164678573608, 96.0, -9.387273683934833, 2.926422510978878, android.sensor.linear_acceleration
1551581878490, -0.23370361328125, 3.3808441162109375, 20.626007080078125, -1.067657470703125, -0.51123046875, -0.260711669921875, -343.25714111328125, -26.78070068359375, -67.108154296875, 99.15798950195312, 0.014044351875782013, -2.2918522357940674, -9.8392333984375, -0.04235493019223213, 0.7848760485649109, 9.778459548950195, 994.7357177734375, 0.019998671486973763, -0.021883472800254822, -0.7582219243049622, 98.0, -3.395973470424925, 0.10448885424276992, android.sensor.rotation_vector
1551581878490, -0.23370361328125, 3.3808441162109375, 20.626007080078125, -1.067657470703125, -0.51123046875, -0.260711669921875, -343.25714111328125, -26.78070068359375, -67.108154296875, 99.15798950195312, 0.014044351875782013, -2.2918522357940674, -9.8392333984375, -0.04235493019223213, 0.7848760485649109, 9.778459548950195, 994.7357177734375, 0.019998671486973763, -0.021883472800254822, -0.7582219243049622, 98.0, -3.395973470424925, 0.10448885424276992, android.sensor.orientation
1551581878542, -0.23370361328125, 3.3808441162109375, 20.626007080078125, -1.067657470703125, -0.51123046875, -0.260711669921875, -346.6766357421875, -24.86114501953125, -62.127685546875, 99.15798950195312, 0.014044351875782013, -2.2918522357940674, -9.8392333984375, -0.04235493019223213, 0.7848760485649109, 9.778459548950195, 994.7357177734375, 0.019998671486973763, -0.021883472800254822, -0.7582219243049622, 98.0, -3.395973470424925, 0.10448885424276992, android.sensor.magnetic_field
1551581878555, -0.23370361328125, 3.3808441162109375, 20.626007080078125, -1.067657470703125, -0.51123046875, -0.260711669921875, -346.6766357421875, -24.86114501953125, -62.127685546875, 99.15798950195312, 0.014044351875782013, -2.2918522357940674, -9.8392333984375, -0.04235493019223213, 0.7848760485649109, 9.778459548950195, 994.736572265625, 0.019998671486973763, -0.021883472800254822, -0.7582219243049622, 98.0, -3.395973470424925, 0.10448885424276992, android.sensor.pressure
1551581878565, -0.3815460205078125, -0.0142059326171875, 8.896194458007812, -1.067657470703125, -0.51123046875, -0.260711669921875, -346.6766357421875, -24.86114501953125, -62.127685546875, 99.15798950195312, 0.014044351875782013, -2.2918522357940674, -9.8392333984375, -0.04235493019223213, 0.7848760485649109, 9.778459548950195, 994.736572265625, 0.019998671486973763, -0.021883472800254822, -0.7582219243049622, 98.0, -3.395973470424925, 0.10448885424276992, android.sensor.accelerometer
1551581878565, -0.3815460205078125, -0.0142059326171875, 8.896194458007812, 0.024444580078125, -0.4004974365234375, -0.2421417236328125, -346.6766357421875, -24.86114501953125, -62.127685546875, 99.15798950195312, 0.014044351875782013, -2.2918522357940674, -9.8392333984375, -0.04235493019223213, 0.7848760485649109, 9.778459548950195, 994.736572265625, 0.019998671486973763, -0.021883472800254822, -0.7582219243049622, 98.0, -3.395973470424925, 0.10448885424276992, android.sensor.gyroscope
1551581878566, -0.3815460205078125, -0.0142059326171875, 8.896194458007812, 0.024444580078125, -0.4004974365234375, -0.2421417236328125, -346.6766357421875, -24.86114501953125, -62.127685546875, 99.15798950195312, 0.014044351875782013, -2.2918522357940674, -9.8392333984375, 0.366858571767807, 0.7342614531517029, 9.775601387023926, 994.736572265625, 0.019998671486973763, -0.021883472800254822, -0.7582219243049622, 98.0, -3.395973470424925, 0.10448885424276992, android.sensor.gravity
1551581878573, -0.3815460205078125, -0.0142059326171875, 8.896194458007812, 0.024444580078125, -0.4004974365234375, -0.2421417236328125, -346.6766357421875, -24.86114501953125, -62.127685546875, 99.15798950195312, 0.44568419456481934, 0.8863533139228821, 2.7792234420776367, 0.366858571767807, 0.7342614531517029, 9.775601387023926, 994.736572265625, 0.019998671486973763, -0.021883472800254822, -0.7582219243049622, 98.0, -3.395973470424925, 0.10448885424276992, android.sensor.linear_acceleration
1551581878582, -0.3815460205078125, -0.0142059326171875, 8.896194458007812, 0.024444580078125, -0.4004974365234375, -0.2421417236328125, -346.6766357421875, -24.86114501953125, -62.127685546875, 99.15798950195312, 0.44568419456481934, 0.8863533139228821, 2.7792234420776367, 0.366858571767807, 0.7342614531517029, 9.775601387023926, 994.736572265625, 0.021149685606360435, -0.03750566393136978, -0.7600952982902527, 99.0, -4.843936862200839, -0.9479240687005173, android.sensor.rotation_vector
1551581878582, -0.3815460205078125, -0.0142059326171875, 8.896194458007812, 0.024444580078125, -0.4004974365234375, -0.2421417236328125, -346.6766357421875, -24.86114501953125, -62.127685546875, 99.15798950195312, 0.44568419456481934, 0.8863533139228821, 2.7792234420776367, 0.366858571767807, 0.7342614531517029, 9.775601387023926, 994.736572265625, 0.021149685606360435, -0.03750566393136978, -0.7600952982902527, 99.0, -4.843936862200839, -0.9479240687005173, android.sensor.orientation
