timestamp, acc_x, acc_y, acc_z, gyro_x, gyro_y, gyro_z, mag_x, mag_y, mag_z, light, la_x, la_y, la_z, gravity_x, gravity_y, gravity_z, pressure, rot_x, rot_y, rot_z, azimuth, pitch, roll, sensor_change
1551581965330, 0.1511688232421875, 7.24456787109375, 6.6800537109375, 0.0480499267578125, 0.0330047607421875, 0.0154876708984375, -316.5863037109375, -117.950439453125, -53.39813232421875, 101.69999694824219, -0.1760205626487732, 0.014545440673828125, -0.0631108283996582, 0.05156601220369339, 7.173207759857178, 6.691676139831543, 994.8046875, 0.08492285758256912, 0.3898206651210785, 0.896828293800354, 203.0, -47.026190529901704, -0.2788092023739932, android.sensor.light
1551581965346, 0.1985626220703125, 0.0904998779296875, 9.717941284179688, 0.0480499267578125, 0.0330047607421875, 0.0154876708984375, -316.5863037109375, -117.950439453125, -53.39813232421875, 101.69999694824219, -0.1760205626487732, 0.014545440673828125, -0.0631108283996582, 0.05156601220369339, 7.173207759857178, 6.691676139831543, 994.8046875, 0.08492285758256912, 0.3898206651210785, 0.896828293800354, 203.0, -47.026190529901704, -0.2788092023739932, android.sensor.accelerometer
1551581965357, 0.1985626220703125, 0.0904998779296875, 9.717941284179688, 0.0480499267578125, 0.0330047607421875, 0.0154876708984375, -316.5863037109375, -117.950439453125, -53.39813232421875, 101.69999694824219, -0.1760205626487732, 0.014545440673828125, -0.0631108283996582, 0.05156601220369339, 7.173207759857178, 6.691676139831543, 994.818603515625, 0.08492285758256912, 0.3898206651210785, 0.896828293800354, 203.0, -47.026190529901704, -0.2788092023739932, android.sensor.pressure
1551581965418, 0.1985626220703125, 0.0904998779296875, 9.717941284179688, 0.0480499267578125, 0.0330047607421875, 0.0154876708984375, -346.6766357421875, -27.25982666015625, 45.48187255859375, 101.69999694824219, -0.1760205626487732, 0.014545440673828125, -0.0631108283996582, 0.05156601220369339, 7.173207759857178, 6.691676139831543, 994.818603515625, 0.08492285758256912, 0.3898206651210785, 0.896828293800354, 203.0, -47.026190529901704, -0.2788092023739932, android.sensor.magnetic_field
1551581965436, 0.1985626220703125, 0.0904998779296875, 9.717941284179688, 0.0480499267578125, 0.0330047607421875, 0.0154876708984375, -346.6766357421875, -27.25982666015625, 45.48187255859375, 104.24299621582031, -0.1760205626487732, 0.014545440673828125, -0.0631108283996582, 0.05156601220369339, 7.173207759857178, 6.691676139831543, 994.818603515625, 0.08492285758256912, 0.3898206651210785, 0.896828293800354, 203.0, -47.026190529901704, -0.2788092023739932, android.sensor.light
1551581965438, 0.1985626220703125, 0.0904998779296875, 9.717941284179688, -0.043060302734375, 0.047271728515625, -0.1819000244140625, -346.6766357421875, -27.25982666015625, 45.48187255859375, 104.24299621582031, -0.1760205626487732, 0.014545440673828125, -0.0631108283996582, 0.05156601220369339, 7.173207759857178, 6.691676139831543, 994.818603515625, 0.08492285758256912, 0.3898206651210785, 0.896828293800354, 203.0, -47.026190529901704, -0.2788092023739932, android.sensor.gyroscope
1551581965443, 0.4138641357421875, 0.037078857421875, 9.623443603515625, -0.043060302734375, 0.047271728515625, -0.1819000244140625, -346.6766357421875, -27.25982666015625, 45.48187255859375, 104.24299621582031, -0.1760205626487732, 0.014545440673828125, -0.0631108283996582, 0.05156601220369339, 7.173207759857178, 6.691676139831543, 994.818603515625, 0.08492285758256912, 0.3898206651210785, 0.896828293800354, 203.0, -47.026190529901704, -0.2788092023739932, android.sensor.accelerometer
1551581965457, 0.4138641357421875, 0.037078857421875, 9.623443603515625, -0.043060302734375, 0.047271728515625, -0.1819000244140625, -346.6766357421875, -27.25982666015625, 45.48187255859375, 104.24299621582031, -0.1760205626487732, 0.014545440673828125, -0.0631108283996582, 0.05156601220369339, 7.173207759857178, 6.691676139831543, 994.8055419921875, 0.08492285758256912, 0.3898206651210785, 0.896828293800354, 203.0, -47.026190529901704, -0.2788092023739932, android.sensor.pressure
1551581965516, 0.4138641357421875, 0.037078857421875, 9.623443603515625, -0.043060302734375, 0.047271728515625, -0.1819000244140625, -347.63641357421875, -27.11029052734375, 45.96099853515625, 104.24299621582031, -0.1760205626487732, 0.014545440673828125, -0.0631108283996582, 0.05156601220369339, 7.173207759857178, 6.691676139831543, 994.8055419921875, 0.08492285758256912, 0.3898206651210785, 0.896828293800354, 203.0, -47.026190529901704, -0.2788092023739932, android.sensor.magnetic_field
1551581965536, 0.4138641357421875, 0.037078857421875, 9.623443603515625, -0.0020599365234375, -0.024658203125, -0.0867462158203125, -347.63641357421875, -27.11029052734375, 45.96099853515625, 104.24299621582031, -0.1760205626487732, 0.014545440673828125, -0.0631108283996582, 0.05156601220369339, 7.173207759857178, 6.691676139831543, 994.8055419921875, 0.08492285758256912, 0.3898206651210785, 0.896828293800354, 203.0, -47.026190529901704, -0.2788092023739932, android.sensor.gyroscope
1551581965540, 0.0827789306640625, -0.0208587646484375, 9.56671142578125, -0.0020599365234375, -0.024658203125, -0.0867462158203125, -347.63641357421875, -27.11029052734375, 45.96099853515625, 104.24299621582031, -0.1760205626487732, 0.014545440673828125, -0.0631108283996582, 0.05156601220369339, 7.173207759857178, 6.691676139831543, 994.8055419921875, 0.08492285758256912, 0.3898206651210785, 0.896828293800354, 203.0, -47.026190529901704, -0.2788092023739932, android.sensor.accelerometer
1551581965557, 0.0827789306640625, -0.0208587646484375, 9.56671142578125, -0.0020599365234375, -0.024658203125, -0.0867462158203125, -347.63641357421875, -27.11029052734375, 45.96099853515625, 104.24299621582031, -0.1760205626487732, 0.014545440673828125, -0.0631108283996582, 0.05156601220369339, 7.173207759857178, 6.691676139831543, 994.8055419921875, 0.08492285758256912, 0.3898206651210785, 0.896828293800354, 203.0, -47.026190529901704, -0.2788092023739932, android.sensor.pressure
1551581965613, 0.0827789306640625, -0.0208587646484375, 9.56671142578125, -0.0020599365234375, -0.024658203125, -0.0867462158203125, -347.3663330078125, -27.5909423828125, 46.68121337890625, 104.24299621582031, -0.1760205626487732, 0.014545440673828125, -0.0631108283996582, 0.05156601220369339, 7.173207759857178, 6.691676139831543, 994.8055419921875, 0.08492285758256912, 0.3898206651210785, 0.896828293800354, 203.0, -47.026190529901704, -0.2788092023739932, android.sensor.magnetic_field
1551581965633, 0.0827789306640625, -0.0208587646484375, 9.56671142578125, -0.1029815673828125, 0.01239013671875, -0.1162261962890625, -347.3663330078125, -27.5909423828125, 46.68121337890625, 104.24299621582031, -0.1760205626487732, 0.014545440673828125, -0.0631108283996582, 0.05156601220369339, 7.173207759857178, 6.691676139831543, 994.8055419921875, 0.08492285758256912, 0.3898206651210785, 0.896828293800354, 203.0, -47.026190529901704, -0.2788092023739932, android.sensor.gyroscope
1551581965638, 0.1535186767578125, 0.3932037353515625, 10.098037719726562, -0.1029815673828125, 0.01239013671875, -0.1162261962890625, -347.3663330078125, -27.5909423828125, 46.68121337890625, 104.24299621582031, -0.1760205626487732, 0.014545440673828125, -0.0631108283996582, 0.05156601220369339, 7.173207759857178, 6.691676139831543, 994.8055419921875, 0.08492285758256912, 0.3898206651210785, 0.896828293800354, 203.0, -47.026190529901704, -0.2788092023739932, android.sensor.accelerometer
1551581965657, 0.1535186767578125, 0.3932037353515625, 10.098037719726562, -0.1029815673828125, 0.01239013671875, -0.1162261962890625, -347.3663330078125, -27.5909423828125, 46.68121337890625, 104.24299621582031, -0.1760205626487732, 0.014545440673828125, -0.0631108283996582, 0.05156601220369339, 7.173207759857178, 6.691676139831543, 994.8040771484375, 0.08492285758256912, 0.3898206651210785, 0.896828293800354, 203.0, -47.026190529901704, -0.2788092023739932, android.sensor.pressure
1551581965714, 0.1535186767578125, 0.3932037353515625, 10.098037719726562, -0.1029815673828125, 0.01239013671875, -0.1162261962890625, -348.32611083984375, -27.410888671875, 46.9512939453125, 104.24299621582031, -0.1760205626487732, 0.014545440673828125, -0.0631108283996582, 0.05156601220369339, 7.173207759857178, 6.691676139831543, 994.8040771484375, 0.08492285758256912, 0.3898206651210785, 0.896828293800354, 203.0, -47.026190529901704, -0.2788092023739932, android.sensor.magnetic_field
1551581965734, 0.1535186767578125, 0.3932037353515625, 10.098037719726562, 0.0036468505859375, 0.0547332763671875, -0.1622314453125, -348.32611083984375, -27.410888671875, 46.9512939453125, 104.24299621582031, -0.1760205626487732, 0.014545440673828125, -0.0631108283996582, 0.05156601220369339, 7.173207759857178, 6.691676139831543, 994.8040771484375, 0.08492285758256912, 0.3898206651210785, 0.896828293800354, 203.0, -47.026190529901704, -0.2788092023739932, android.sensor.gyroscope
1551581965737, -0.0728759765625, -0.1390838623046875, 9.66986083984375, 0.0036468505859375, 0.0547332763671875, -0.1622314453125, -348.32611083984375, -27.410888671875, 46.9512939453125, 104.24299621582031, -0.1760205626487732, 0.014545440673828125, -0.0631108283996582, 0.05156601220369339, 7.173207759857178, 6.691676139831543, 994.8040771484375, 0.08492285758256912, 0.3898206651210785, 0.896828293800354, 203.0, -47.026190529901704, -0.2788092023739932, android.sensor.accelerometer
1551581965761, -0.0728759765625, -0.1390838623046875, 9.66986083984375, 0.0036468505859375, 0.0547332763671875, -0.1622314453125, -348.32611083984375, -27.410888671875, 46.9512939453125, 104.24299621582031, -0.1760205626487732, 0.014545440673828125, -0.0631108283996582, 0.05156601220369339, 7.173207759857178, 6.691676139831543, 994.8040771484375, 0.08492285758256912, 0.3898206651210785, 0.896828293800354, 203.0, -47.026190529901704, -0.2788092023739932, android.sensor.pressure
1551581965812, -0.0728759765625, -0.1390838623046875, 9.66986083984375, 0.0036468505859375, 0.0547332763671875, -0.1622314453125, -348.1170654296875, -27.83050537109375, 48.12164306640625, 104.24299621582031, -0.1760205626487732, 0.014545440673828125, -0.0631108283996582, 0.05156601220369339, 7.173207759857178, 6.691676139831543, 994.8040771484375, 0.08492285758256912, 0.3898206651210785, 0.896828293800354, 203.0, -47.026190529901704, -0.2788092023739932, android.sensor.magnetic_field
1551581965833, -0.0728759765625, -0.1390838623046875, 9.66986083984375, -0.115325927734375, -0.0032196044921875, -0.063323974609375, -348.1170654296875, -27.83050537109375, 48.12164306640625, 104.24299621582031, -0.1760205626487732, 0.014545440673828125, -0.0631108283996582, 0.05156601220369339, 7.173207759857178, 6.691676139831543, 994.8040771484375, 0.08492285758256912, 0.3898206651210785, 0.896828293800354, 203.0, -47.026190529901704, -0.2788092023739932, android.sensor.gyroscope
1551581965834, 0.0164947509765625, -0.2696685791015625, 9.77899169921875, -0.115325927734375, -0.0032196044921875, -0.063323974609375, -348.1170654296875, -27.83050537109375, 48.12164306640625, 104.24299621582031, -0.1760205626487732, 0.014545440673828125, -0.0631108283996582, 0.05156601220369339, 7.173207759857178, 6.691676139831543, 994.8040771484375, 0.08492285758256912, 0.3898206651210785, 0.896828293800354, 203.0, -47.026190529901704, -0.2788092023739932, android.sensor.accelerometer
1551581965844, 0.0164947509765625, -0.2696685791015625, 9.77899169921875, -0.115325927734375, -0.0032196044921875, -0.063323974609375, -348.1170654296875, -27.83050537109375, 48.12164306640625, 110.17498779296875, -0.1760205626487732, 0.014545440673828125, -0.0631108283996582, 0.05156601220369339, 7.173207759857178, 6.691676139831543, 994.8040771484375, 0.08492285758256912, 0.3898206651210785, 0.896828293800354, 203.0, -47.026190529901704, -0.2788092023739932, android.sensor.light
1551581965858, 0.0164947509765625, -0.2696685791015625, 9.77899169921875, -0.115325927734375, -0.0032196044921875, -0.063323974609375, -348.1170654296875, -27.83050537109375, 48.12164306640625, 110.17498779296875, -0.1760205626487732, 0.014545440673828125, -0.0631108283996582, 0.05156601220369339, 7.173207759857178, 6.691676139831543, 994.8059692382812, 0.08492285758256912, 0.3898206651210785, 0.896828293800354, 203.0, -47.026190529901704, -0.2788092023739932, android.sensor.pressure
1551581965907, 0.0164947509765625, -0.2696685791015625, 9.77899169921875, -0.115325927734375, -0.0032196044921875, -0.063323974609375, -349.25689697265625, -27.2003173828125, 49.0814208984375, 110.17498779296875, -0.1760205626487732, 0.014545440673828125, -0.0631108283996582, 0.05156601220369339, 7.173207759857178, 6.691676139831543, 994.8059692382812, 0.08492285758256912, 0.3898206651210785, 0.896828293800354, 203.0, -47.026190529901704, -0.2788092023739932, android.sensor.magnetic_field
1551581965927, 0.0164947509765625, -0.2696685791015625, 9.77899169921875, 0.0257110595703125, 0.021209716796875, 0.05047607421875, -349.25689697265625, -27.2003173828125, 49.0814208984375, 110.17498779296875, -0.1760205626487732, 0.014545440673828125, -0.0631108283996582, 0.05156601220369339, 7.173207759857178, 6.691676139831543, 994.8059692382812, 0.08492285758256912, 0.3898206651210785, 0.896828293800354, 203.0, -47.026190529901704, -0.2788092023739932, android.sensor.gyroscope
1551581965931, 0.240997314453125, -0.4539031982421875, 10.198287963867188, 0.0257110595703125, 0.021209716796875, 0.05047607421875, -349.25689697265625, -27.2003173828125, 49.0814208984375, 110.17498779296875, -0.1760205626487732, 0.014545440673828125, -0.0631108283996582, 0.05156601220369339, 7.173207759857178, 6.691676139831543, 994.8059692382812, 0.08492285758256912, 0.3898206651210785, 0.896828293800354, 203.0, -47.026190529901704, -0.2788092023739932, android.sensor.accelerometer
1551581965957, 0.240997314453125, -0.4539031982421875, 10.198287963867188, 0.0257110595703125, 0.021209716796875, 0.05047607421875, -349.25689697265625, -27.2003173828125, 49.0814208984375, 110.17498779296875, -0.1760205626487732, 0.014545440673828125, -0.0631108283996582, 0.05156601220369339, 7.173207759857178, 6.691676139831543, 994.794921875, 0.08492285758256912, 0.3898206651210785, 0.896828293800354, 203.0, -47.026190529901704, -0.2788092023739932, android.sensor.pressure
1551581966006, 0.240997314453125, -0.4539031982421875, 10.198287963867188, 0.0257110595703125, 0.021209716796875, 0.05047607421875, -349.07684326171875, -26.78070068359375, 49.4110107421875, 110.17498779296875, -0.1760205626487732, 0.014545440673828125, -0.0631108283996582, 0.05156601220369339, 7.173207759857178, 6.691676139831543, 994.794921875, 0.08492285758256912, 0.3898206651210785, 0.896828293800354, 203.0, -47.026190529901704, -0.2788092023739932, android.sensor.magnetic_field
1551581966026, 0.240997314453125, -0.4539031982421875, 10.198287963867188, -0.062713623046875, 0.058258056640625, 0.059234619140625, -349.07684326171875, -26.78070068359375, 49.4110107421875, 110.17498779296875, -0.1760205626487732, 0.014545440673828125, -0.0631108283996582, 0.05156601220369339, 7.173207759857178, 6.691676139831543, 994.794921875, 0.08492285758256912, 0.3898206651210785, 0.896828293800354, 203.0, -47.026190529901704, -0.2788092023739932, android.sensor.gyroscope
1551581966033, -0.047393798828125, -0.2504425048828125, 9.527053833007812, -0.062713623046875, 0.058258056640625, 0.059234619140625, -349.07684326171875, -26.78070068359375, 49.4110107421875, 110.17498779296875, -0.1760205626487732, 0.014545440673828125, -0.0631108283996582, 0.05156601220369339, 7.173207759857178, 6.691676139831543, 994.794921875, 0.08492285758256912, 0.3898206651210785, 0.896828293800354, 203.0, -47.026190529901704, -0.2788092023739932, android.sensor.accelerometer
1551581966038, -0.047393798828125, -0.2504425048828125, 9.527053833007812, -0.062713623046875, 0.058258056640625, 0.059234619140625, -349.07684326171875, -26.78070068359375, 49.4110107421875, 110.17498779296875, -0.1760205626487732, 0.014545440673828125, -0.0631108283996582, 0.19637241959571838, -0.3017885982990265, 9.803390502929688, 994.794921875, 0.08492285758256912, 0.3898206651210785, 0.896828293800354, 203.0, -47.026190529901704, -0.2788092023739932, android.sensor.gravity
1551581966052, -0.047393798828125, -0.2504425048828125, 9.527053833007812, -0.062713623046875, 0.058258056640625, 0.059234619140625, -349.07684326171875, -26.78070068359375, 49.4110107421875, 110.17498779296875, 0.1581733673810959, 0.004021883010864258, 0.14356136322021484, 0.19637241959571838, -0.3017885982990265, 9.803390502929688, 994.794921875, 0.08492285758256912, 0.3898206651210785, 0.896828293800354, 203.0, -47.026190529901704, -0.2788092023739932, android.sensor.linear_acceleration
1551581966058, -0.047393798828125, -0.2504425048828125, 9.527053833007812, -0.062713623046875, 0.058258056640625, 0.059234619140625, -349.07684326171875, -26.78070068359375, 49.4110107421875, 110.17498779296875, 0.1581733673810959, 0.004021883010864258, 0.14356136322021484, 0.19637241959571838, -0.3017885982990265, 9.803390502929688, 994.794921875, -0.014416705816984177, -0.009941051714122295, -0.7334650158882141, 94.0, 0.2870255997804012, -1.9861923302132627, android.sensor.rotation_vector
1551581966059, -0.047393798828125, -0.2504425048828125, 9.527053833007812, -0.062713623046875, 0.058258056640625, 0.059234619140625, -349.07684326171875, -26.78070068359375, 49.4110107421875, 110.17498779296875, 0.1581733673810959, 0.004021883010864258, 0.14356136322021484, 0.19637241959571838, -0.3017885982990265, 9.803390502929688, 994.794921875, -0.014416705816984177, -0.009941051714122295, -0.7334650158882141, 94.0, 0.2870255997804012, -1.9861923302132627, android.sensor.pressure
1551581966062, -0.047393798828125, -0.2504425048828125, 9.527053833007812, -0.062713623046875, 0.058258056640625, 0.059234619140625, -349.07684326171875, -26.78070068359375, 49.4110107421875, 110.17498779296875, 0.1581733673810959, 0.004021883010864258, 0.14356136322021484, 0.19637241959571838, -0.3017885982990265, 9.803390502929688, 994.794921875, -0.014416705816984177, -0.009941051714122295, -0.7334650158882141, 94.0, 0.2870255997804012, -1.9861923302132627, android.sensor.orientation
1551581966109, -0.047393798828125, -0.2504425048828125, 9.527053833007812, -0.062713623046875, 0.058258056640625, 0.059234619140625, -350.396728515625, -26.690673828125, 49.261474609375, 110.17498779296875, 0.1581733673810959, 0.004021883010864258, 0.14356136322021484, 0.19637241959571838, -0.3017885982990265, 9.803390502929688, 994.794921875, -0.014416705816984177, -0.009941051714122295, -0.7334650158882141, 94.0, 0.2870255997804012, -1.9861923302132627, android.sensor.magnetic_field
1551581966127, -0.047393798828125, -0.2504425048828125, 9.527053833007812, -0.133453369140625, -0.0330963134765625, 0.055267333984375, -350.396728515625, -26.690673828125, 49.261474609375, 110.17498779296875, 0.1581733673810959, 0.004021883010864258, 0.14356136322021484, 0.19637241959571838, -0.3017885982990265, 9.803390502929688, 994.794921875, -0.014416705816984177, -0.009941051714122295, -0.7334650158882141, 94.0, 0.2870255997804012, -1.9861923302132627, android.sensor.gyroscope
1551581966128, 0.0827789306640625, -0.0861358642578125, 9.875411987304688, -0.133453369140625, -0.0330963134765625, 0.055267333984375, -350.396728515625, -26.690673828125, 49.261474609375, 110.17498779296875, 0.1581733673810959, 0.004021883010864258, 0.14356136322021484, 0.19637241959571838, -0.3017885982990265, 9.803390502929688, 994.794921875, -0.014416705816984177, -0.009941051714122295, -0.7334650158882141, 94.0, 0.2870255997804012, -1.9861923302132627, android.sensor.accelerometer
1551581966139, 0.0827789306640625, -0.0861358642578125, 9.875411987304688, -0.133453369140625, -0.0330963134765625, 0.055267333984375, -350.396728515625, -26.690673828125, 49.261474609375, 110.17498779296875, 0.1581733673810959, 0.004021883010864258, 0.14356136322021484, 0.21498963236808777, -0.4274001121520996, 9.798327445983887, 994.794921875, -0.014416705816984177, -0.009941051714122295, -0.7334650158882141, 94.0, 0.2870255997804012, -1.9861923302132627, android.sensor.gravity
1551581966146, 0.0827789306640625, -0.0861358642578125, 9.875411987304688, -0.133453369140625, -0.0330963134765625, 0.055267333984375, -350.396728515625, -26.690673828125, 49.261474609375, 110.17498779296875, 0.0501226931810379, -0.3023897111415863, -0.11475467681884766, 0.21498963236808777, -0.4274001121520996, 9.798327445983887, 994.794921875, -0.014416705816984177, -0.009941051714122295, -0.7334650158882141, 94.0, 0.2870255997804012, -1.9861923302132627, android.sensor.linear_acceleration
1551581966155, 0.0827789306640625, -0.0861358642578125, 9.875411987304688, -0.133453369140625, -0.0330963134765625, 0.055267333984375, -350.396728515625, -26.690673828125, 49.261474609375, 110.17498779296875, 0.0501226931810379, -0.3023897111415863, -0.11475467681884766, 0.21498963236808777, -0.4274001121520996, 9.798327445983887, 994.794921875, -0.018328972160816193, -0.004616246558725834, -0.7325626611709595, 94.0, 1.0416972299195033, -1.8992359112293609, android.sensor.rotation_vector
1551581966158, 0.0827789306640625, -0.0861358642578125, 9.875411987304688, -0.133453369140625, -0.0330963134765625, 0.055267333984375, -350.396728515625, -26.690673828125, 49.261474609375, 110.17498779296875, 0.0501226931810379, -0.3023897111415863, -0.11475467681884766, 0.21498963236808777, -0.4274001121520996, 9.798327445983887, 994.794921875, -0.018328972160816193, -0.004616246558725834, -0.7325626611709595, 94.0, 1.0416972299195033, -1.8992359112293609, android.sensor.orientation
1551581966159, 0.0827789306640625, -0.0861358642578125, 9.875411987304688, -0.133453369140625, -0.0330963134765625, 0.055267333984375, -350.396728515625, -26.690673828125, 49.261474609375, 110.17498779296875, 0.0501226931810379, -0.3023897111415863, -0.11475467681884766, 0.21498963236808777, -0.4274001121520996, 9.798327445983887, 994.7962646484375, -0.018328972160816193, -0.004616246558725834, -0.7325626611709595, 94.0, 1.0416972299195033, -1.8992359112293609, android.sensor.pressure
1551581966205, 0.0827789306640625, -0.0861358642578125, 9.875411987304688, -0.133453369140625, -0.0330963134765625, 0.055267333984375, -350.12664794921875, -26.2115478515625, 51.031494140625, 110.17498779296875, 0.0501226931810379, -0.3023897111415863, -0.11475467681884766, 0.21498963236808777, -0.4274001121520996, 9.798327445983887, 994.7962646484375, -0.018328972160816193, -0.004616246558725834, -0.7325626611709595, 94.0, 1.0416972299195033, -1.8992359112293609, android.sensor.magnetic_field
1551581966225, 0.0827789306640625, -0.0861358642578125, 9.875411987304688, -0.17901611328125, -0.0415191650390625, 0.08660888671875, -350.12664794921875, -26.2115478515625, 51.031494140625, 110.17498779296875, 0.0501226931810379, -0.3023897111415863, -0.11475467681884766, 0.21498963236808777, -0.4274001121520996, 9.798327445983887, 994.7962646484375, -0.018328972160816193, -0.004616246558725834, -0.7325626611709595, 94.0, 1.0416972299195033, -1.8992359112293609, android.sensor.gyroscope
1551581966225, 0.096221923828125, 0.1560211181640625, 9.663604736328125, -0.17901611328125, -0.0415191650390625, 0.08660888671875, -350.12664794921875, -26.2115478515625, 51.031494140625, 110.17498779296875, 0.0501226931810379, -0.3023897111415863, -0.11475467681884766, 0.21498963236808777, -0.4274001121520996, 9.798327445983887, 994.7962646484375, -0.018328972160816193, -0.004616246558725834, -0.7325626611709595, 94.0, 1.0416972299195033, -1.8992359112293609, android.sensor.accelerometer
1551581966235, 0.096221923828125, 0.1560211181640625, 9.663604736328125, -0.17901611328125, -0.0415191650390625, 0.08660888671875, -350.12664794921875, -26.2115478515625, 51.031494140625, 110.17498779296875, 0.0501226931810379, -0.3023897111415863, -0.11475467681884766, 0.25990402698516846, -0.5954963564872742, 9.788459777832031, 994.7962646484375, -0.018328972160816193, -0.004616246558725834, -0.7325626611709595, 94.0, 1.0416972299195033, -1.8992359112293609, android.sensor.gravity
1551581966244, 0.096221923828125, 0.1560211181640625, 9.663604736328125, -0.17901611328125, -0.0415191650390625, 0.08660888671875, -350.12664794921875, -26.2115478515625, 51.031494140625, 110.17498779296875, 0.03230825066566467, -0.7344413995742798, -0.07486152648925781, 0.25990402698516846, -0.5954963564872742, 9.788459777832031, 994.7962646484375, -0.018328972160816193, -0.004616246558725834, -0.7325626611709595, 94.0, 1.0416972299195033, -1.8992359112293609, android.sensor.linear_acceleration
1551581966256, 0.096221923828125, 0.1560211181640625, 9.663604736328125, -0.17901611328125, -0.0415191650390625, 0.08660888671875, -350.12664794921875, -26.2115478515625, 51.031494140625, 110.17498779296875, 0.03230825066566467, -0.7344413995742798, -0.07486152648925781, 0.25990402698516846, -0.5954963564872742, 9.788459777832031, 994.7962646484375, -0.02625366859138012, -0.0014250021195039153, -0.7299495935440063, 93.0, 1.935928327780904, -2.3094875951881804, android.sensor.rotation_vector
1551581966257, 0.096221923828125, 0.1560211181640625, 9.663604736328125, -0.17901611328125, -0.0415191650390625, 0.08660888671875, -350.12664794921875, -26.2115478515625, 51.031494140625, 110.17498779296875, 0.03230825066566467, -0.7344413995742798, -0.07486152648925781, 0.25990402698516846, -0.5954963564872742, 9.788459777832031, 994.7962646484375, -0.02625366859138012, -0.0014250021195039153, -0.7299495935440063, 93.0, 1.935928327780904, -2.3094875951881804, android.sensor.orientation
1551581966260, 0.096221923828125, 0.1560211181640625, 9.663604736328125, -0.17901611328125, -0.0415191650390625, 0.08660888671875, -350.12664794921875, -26.2115478515625, 51.031494140625, 110.17498779296875, 0.03230825066566467, -0.7344413995742798, -0.07486152648925781, 0.25990402698516846, -0.5954963564872742, 9.788459777832031, 994.7962646484375, -0.02625366859138012, -0.0014250021195039153, -0.7299495935440063, 93.0, 1.935928327780904, -2.3094875951881804, android.sensor.pressure
1551581966306, 0.096221923828125, 0.1560211181640625, 9.663604736328125, -0.17901611328125, -0.0415191650390625, 0.08660888671875, -350.96588134765625, -25.58135986328125, 52.2308349609375, 110.17498779296875, 0.03230825066566467, -0.7344413995742798, -0.07486152648925781, 0.25990402698516846, -0.5954963564872742, 9.788459777832031, 994.7962646484375, -0.02625366859138012, -0.0014250021195039153, -0.7299495935440063, 93.0, 1.935928327780904, -2.3094875951881804, android.sensor.magnetic_field
1551581966324, 0.096221923828125, 0.1560211181640625, 9.663604736328125, -0.1403350830078125, -0.0365753173828125, -0.015533447265625, -350.96588134765625, -25.58135986328125, 52.2308349609375, 110.17498779296875, 0.03230825066566467, -0.7344413995742798, -0.07486152648925781, 0.25990402698516846, -0.5954963564872742, 9.788459777832031, 994.7962646484375, -0.02625366859138012, -0.0014250021195039153, -0.7299495935440063, 93.0, 1.935928327780904, -2.3094875951881804, android.sensor.gyroscope
1551581966325, 0.3039703369140625, 0.2642822265625, 9.699188232421875, -0.1403350830078125, -0.0365753173828125, -0.015533447265625, -350.96588134765625, -25.58135986328125, 52.2308349609375, 110.17498779296875, 0.03230825066566467, -0.7344413995742798, -0.07486152648925781, 0.25990402698516846, -0.5954963564872742, 9.788459777832031, 994.7962646484375, -0.02625366859138012, -0.0014250021195039153, -0.7299495935440063, 93.0, 1.935928327780904, -2.3094875951881804, android.sensor.accelerometer
1551581966330, 0.3039703369140625, 0.2642822265625, 9.699188232421875, -0.1403350830078125, -0.0365753173828125, -0.015533447265625, -350.96588134765625, -25.58135986328125, 52.2308349609375, 110.17498779296875, 0.03230825066566467, -0.7344413995742798, -0.07486152648925781, 0.29962971806526184, -0.7284898161888123, 9.778325080871582, 994.7962646484375, -0.02625366859138012, -0.0014250021195039153, -0.7299495935440063, 93.0, 1.935928327780904, -2.3094875951881804, android.sensor.gravity
1551581966344, 0.3039703369140625, 0.2642822265625, 9.699188232421875, -0.1403350830078125, -0.0365753173828125, -0.015533447265625, -350.96588134765625, -25.58135986328125, 52.2308349609375, 110.17498779296875, -0.10272207856178284, -0.9234164357185364, -0.021823883056640625, 0.29962971806526184, -0.7284898161888123, 9.778325080871582, 994.7962646484375, -0.02625366859138012, -0.0014250021195039153, -0.7299495935440063, 93.0, 1.935928327780904, -2.3094875951881804, android.sensor.linear_acceleration
1551581966355, 0.3039703369140625, 0.2642822265625, 9.699188232421875, -0.1403350830078125, -0.0365753173828125, -0.015533447265625, -350.96588134765625, -25.58135986328125, 52.2308349609375, 110.17498779296875, -0.10272207856178284, -0.9234164357185364, -0.021823883056640625, 0.29962971806526184, -0.7284898161888123, 9.778325080871582, 994.7962646484375, -0.032828591763973236, 0.001252490095794201, -0.7309119701385498, 94.0, 2.6702709937529474, -2.6555980398684675, android.sensor.rotation_vector
1551581966356, 0.3039703369140625, 0.2642822265625, 9.699188232421875, -0.1403350830078125, -0.0365753173828125, -0.015533447265625, -350.96588134765625, -25.58135986328125, 52.2308349609375, 110.17498779296875, -0.10272207856178284, -0.9234164357185364, -0.021823883056640625, 0.29962971806526184, -0.7284898161888123, 9.778325080871582, 994.7962646484375, -0.032828591763973236, 0.001252490095794201, -0.7309119701385498, 94.0, 2.6702709937529474, -2.6555980398684675, android.sensor.orientation
1551581966362, 0.3039703369140625, 0.2642822265625, 9.699188232421875, -0.1403350830078125, -0.0365753173828125, -0.015533447265625, -350.96588134765625, -25.58135986328125, 52.2308349609375, 110.17498779296875, -0.10272207856178284, -0.9234164357185364, -0.021823883056640625, 0.29962971806526184, -0.7284898161888123, 9.778325080871582, 994.8036499023438, -0.032828591763973236, 0.001252490095794201, -0.7309119701385498, 94.0, 2.6702709937529474, -2.6555980398684675, android.sensor.pressure
1551581966399, 0.3039703369140625, 0.2642822265625, 9.699188232421875, -0.1403350830078125, -0.0365753173828125, -0.015533447265625, -351.35650634765625, -24.7100830078125, 53.3721923828125, 110.17498779296875, -0.10272207856178284, -0.9234164357185364, -0.021823883056640625, 0.29962971806526184, -0.7284898161888123, 9.778325080871582, 994.8036499023438, -0.032828591763973236, 0.001252490095794201, -0.7309119701385498, 94.0, 2.6702709937529474, -2.6555980398684675, android.sensor.magnetic_field
1551581966415, 0.3039703369140625, 0.2642822265625, 9.699188232421875, 0.0098419189453125, 0.1379547119140625, -0.2283935546875, -351.35650634765625, -24.7100830078125, 53.3721923828125, 110.17498779296875, -0.10272207856178284, -0.9234164357185364, -0.021823883056640625, 0.29962971806526184, -0.7284898161888123, 9.778325080871582, 994.8036499023438, -0.032828591763973236, 0.001252490095794201, -0.7309119701385498, 94.0, 2.6702709937529474, -2.6555980398684675, android.sensor.gyroscope
1551581966420, 0.478485107421875, 0.2873077392578125, 9.955230712890625, 0.0098419189453125, 0.1379547119140625, -0.2283935546875, -351.35650634765625, -24.7100830078125, 53.3721923828125, 110.17498779296875, -0.10272207856178284, -0.9234164357185364, -0.021823883056640625, 0.29962971806526184, -0.7284898161888123, 9.778325080871582, 994.8036499023438, -0.032828591763973236, 0.001252490095794201, -0.7309119701385498, 94.0, 2.6702709937529474, -2.6555980398684675, android.sensor.accelerometer
1551581966424, 0.478485107421875, 0.2873077392578125, 9.955230712890625, 0.0098419189453125, 0.1379547119140625, -0.2283935546875, -351.35650634765625, -24.7100830078125, 53.3721923828125, 110.17498779296875, -0.10272207856178284, -0.9234164357185364, -0.021823883056640625, 0.14480584859848022, -0.7148817777633667, 9.782846450805664, 994.8036499023438, -0.032828591763973236, 0.001252490095794201, -0.7309119701385498, 94.0, 2.6702709937529474, -2.6555980398684675, android.sensor.gravity
1551581966435, 0.478485107421875, 0.2873077392578125, 9.955230712890625, 0.0098419189453125, 0.1379547119140625, -0.2283935546875, -351.35650634765625, -24.7100830078125, 53.3721923828125, 110.17498779296875, -0.43876248598098755, -0.9724521040916443, -0.11965465545654297, 0.14480584859848022, -0.7148817777633667, 9.782846450805664, 994.8036499023438, -0.032828591763973236, 0.001252490095794201, -0.7309119701385498, 94.0, 2.6702709937529474, -2.6555980398684675, android.sensor.linear_acceleration
1551581966444, 0.478485107421875, 0.2873077392578125, 9.955230712890625, 0.0098419189453125, 0.1379547119140625, -0.2283935546875, -351.35650634765625, -24.7100830078125, 53.3721923828125, 110.17498779296875, -0.43876248598098755, -0.9724521040916443, -0.11965465545654297, 0.14480584859848022, -0.7148817777633667, 9.782846450805664, 994.8036499023438, -0.021627215668559074, 0.013994778506457806, -0.7407364249229431, 95.0, 2.8527700198376915, -0.7601733208351209, android.sensor.rotation_vector
1551581966450, 0.478485107421875, 0.2873077392578125, 9.955230712890625, 0.0098419189453125, 0.1379547119140625, -0.2283935546875, -351.35650634765625, -24.7100830078125, 53.3721923828125, 110.17498779296875, -0.43876248598098755, -0.9724521040916443, -0.11965465545654297, 0.14480584859848022, -0.7148817777633667, 9.782846450805664, 994.8036499023438, -0.021627215668559074, 0.013994778506457806, -0.7407364249229431, 95.0, 2.8527700198376915, -0.7601733208351209, android.sensor.orientation
1551581966457, 0.478485107421875, 0.2873077392578125, 9.955230712890625, 0.0098419189453125, 0.1379547119140625, -0.2283935546875, -351.35650634765625, -24.7100830078125, 53.3721923828125, 110.17498779296875, -0.43876248598098755, -0.9724521040916443, -0.11965465545654297, 0.14480584859848022, -0.7148817777633667, 9.782846450805664, 994.8084106445312, -0.021627215668559074, 0.013994778506457806, -0.7407364249229431, 95.0, 2.8527700198376915, -0.7601733208351209, android.sensor.pressure
1551581966493, 0.478485107421875, 0.2873077392578125, 9.955230712890625, 0.0098419189453125, 0.1379547119140625, -0.2283935546875, -354.38690185546875, -23.78082275390625, 55.5023193359375, 110.17498779296875, -0.43876248598098755, -0.9724521040916443, -0.11965465545654297, 0.14480584859848022, -0.7148817777633667, 9.782846450805664, 994.8084106445312, -0.021627215668559074, 0.013994778506457806, -0.7407364249229431, 95.0, 2.8527700198376915, -0.7601733208351209, android.sensor.magnetic_field
1551581966518, 0.478485107421875, 0.2873077392578125, 9.955230712890625, -0.26739501953125, 0.126678466796875, -0.0905914306640625, -354.38690185546875, -23.78082275390625, 55.5023193359375, 110.17498779296875, -0.43876248598098755, -0.9724521040916443, -0.11965465545654297, 0.14480584859848022, -0.7148817777633667, 9.782846450805664, 994.8084106445312, -0.021627215668559074, 0.013994778506457806, -0.7407364249229431, 95.0, 2.8527700198376915, -0.7601733208351209, android.sensor.gyroscope
1551581966521, 0.147613525390625, 0.1346588134765625, 9.868438720703125, -0.26739501953125, 0.126678466796875, -0.0905914306640625, -354.38690185546875, -23.78082275390625, 55.5023193359375, 110.17498779296875, -0.43876248598098755, -0.9724521040916443, -0.11965465545654297, 0.14480584859848022, -0.7148817777633667, 9.782846450805664, 994.8084106445312, -0.021627215668559074, 0.013994778506457806, -0.7407364249229431, 95.0, 2.8527700198376915, -0.7601733208351209, android.sensor.accelerometer
1551581966524, 0.147613525390625, 0.1346588134765625, 9.868438720703125, -0.26739501953125, 0.126678466796875, -0.0905914306640625, -354.38690185546875, -23.78082275390625, 55.5023193359375, 110.17498779296875, -0.43876248598098755, -0.9724521040916443, -0.11965465545654297, 0.07417679578065872, -0.9560340642929077, 9.763022422790527, 994.8084106445312, -0.021627215668559074, 0.013994778506457806, -0.7407364249229431, 95.0, 2.8527700198376915, -0.7601733208351209, android.sensor.gravity
1551581966542, 0.147613525390625, 0.1346588134765625, 9.868438720703125, -0.26739501953125, 0.126678466796875, -0.0905914306640625, -354.38690185546875, -23.78082275390625, 55.5023193359375, 110.17498779296875, -0.292134553194046, -1.1179509162902832, -0.7311983108520508, 0.07417679578065872, -0.9560340642929077, 9.763022422790527, 994.8084106445312, -0.021627215668559074, 0.013994778506457806, -0.7407364249229431, 95.0, 2.8527700198376915, -0.7601733208351209, android.sensor.linear_acceleration
1551581966545, 0.147613525390625, 0.1346588134765625, 9.868438720703125, -0.26739501953125, 0.126678466796875, -0.0905914306640625, -354.38690185546875, -23.78082275390625, 55.5023193359375, 110.17498779296875, -0.292134553194046, -1.1179509162902832, -0.7311983108520508, 0.07417679578065872, -0.9560340642929077, 9.763022422790527, 994.8084106445312, -0.029830902814865112, 0.01664489507675171, -0.7403122782707214, 95.0, 3.7097118066471135, -1.252791269851329, android.sensor.rotation_vector
1551581966550, 0.147613525390625, 0.1346588134765625, 9.868438720703125, -0.26739501953125, 0.126678466796875, -0.0905914306640625, -354.38690185546875, -23.78082275390625, 55.5023193359375, 110.17498779296875, -0.292134553194046, -1.1179509162902832, -0.7311983108520508, 0.07417679578065872, -0.9560340642929077, 9.763022422790527, 994.8084106445312, -0.029830902814865112, 0.01664489507675171, -0.7403122782707214, 95.0, 3.7097118066471135, -1.252791269851329, android.sensor.orientation
1551581966557, 0.147613525390625, 0.1346588134765625, 9.868438720703125, -0.26739501953125, 0.126678466796875, -0.0905914306640625, -354.38690185546875, -23.78082275390625, 55.5023193359375, 121.1929931640625, -0.292134553194046, -1.1179509162902832, -0.7311983108520508, 0.07417679578065872, -0.9560340642929077, 9.763022422790527, 994.8084106445312, -0.029830902814865112, 0.01664489507675171, -0.7403122782707214, 95.0, 3.7097118066471135, -1.252791269851329, android.sensor.light
1551581966561, 0.147613525390625, 0.1346588134765625, 9.868438720703125, -0.26739501953125, 0.126678466796875, -0.0905914306640625, -354.38690185546875, -23.78082275390625, 55.5023193359375, 121.1929931640625, -0.292134553194046, -1.1179509162902832, -0.7311983108520508, 0.07417679578065872, -0.9560340642929077, 9.763022422790527, 994.8084106445312, -0.029830902814865112, 0.01664489507675171, -0.7403122782707214, 95.0, 3.7097118066471135, -1.252791269851329, android.sensor.pressure
1551581966597, 0.147613525390625, 0.1346588134765625, 9.868438720703125, -0.26739501953125, 0.126678466796875, -0.0905914306640625, -355.4962158203125, -20.5413818359375, 55.92193603515625, 121.1929931640625, -0.292134553194046, -1.1179509162902832, -0.7311983108520508, 0.07417679578065872, -0.9560340642929077, 9.763022422790527, 994.8084106445312, -0.029830902814865112, 0.01664489507675171, -0.7403122782707214, 95.0, 3.7097118066471135, -1.252791269851329, android.sensor.magnetic_field
1551581966617, 0.147613525390625, 0.1346588134765625, 9.868438720703125, 0.05206298828125, -0.08685302734375, 0.070281982421875, -355.4962158203125, -20.5413818359375, 55.92193603515625, 121.1929931640625, -0.292134553194046, -1.1179509162902832, -0.7311983108520508, 0.07417679578065872, -0.9560340642929077, 9.763022422790527, 994.8084106445312, -0.029830902814865112, 0.01664489507675171, -0.7403122782707214, 95.0, 3.7097118066471135, -1.252791269851329, android.sensor.gyroscope
1551581966617, 1.3130340576171875, 1.855926513671875, 12.242279052734375, 0.05206298828125, -0.08685302734375, 0.070281982421875, -355.4962158203125, -20.5413818359375, 55.92193603515625, 121.1929931640625, -0.292134553194046, -1.1179509162902832, -0.7311983108520508, 0.07417679578065872, -0.9560340642929077, 9.763022422790527, 994.8084106445312, -0.029830902814865112, 0.01664489507675171, -0.7403122782707214, 95.0, 3.7097118066471135, -1.252791269851329, android.sensor.accelerometer
1551581966626, 1.3130340576171875, 1.855926513671875, 12.242279052734375, 0.05206298828125, -0.08685302734375, 0.070281982421875, -355.4962158203125, -20.5413818359375, 55.92193603515625, 121.1929931640625, -0.292134553194046, -1.1179509162902832, -0.7311983108520508, 0.13363027572631836, -0.9079054594039917, 9.766983032226562, 994.8084106445312, -0.029830902814865112, 0.01664489507675171, -0.7403122782707214, 95.0, 3.7097118066471135, -1.252791269851329, android.sensor.gravity
1551581966634, 1.3130340576171875, 1.855926513671875, 12.242279052734375, 0.05206298828125, -0.08685302734375, 0.070281982421875, -355.4962158203125, -20.5413818359375, 55.92193603515625, 121.1929931640625, -1.4152523279190063, -2.909433364868164, -2.788196563720703, 0.13363027572631836, -0.9079054594039917, 9.766983032226562, 994.8084106445312, -0.029830902814865112, 0.01664489507675171, -0.7403122782707214, 95.0, 3.7097118066471135, -1.252791269851329, android.sensor.linear_acceleration
1551581966648, 1.3130340576171875, 1.855926513671875, 12.242279052734375, 0.05206298828125, -0.08685302734375, 0.070281982421875, -355.4962158203125, -20.5413818359375, 55.92193603515625, 121.1929931640625, -1.4152523279190063, -2.909433364868164, -2.788196563720703, 0.13363027572631836, -0.9079054594039917, 9.766983032226562, 994.8084106445312, -0.027080349624156952, 0.018432559445500374, -0.7437822222709656, 96.0, 3.6452279906930234, -0.8997920457845547, android.sensor.rotation_vector
1551581966649, 1.3130340576171875, 1.855926513671875, 12.242279052734375, 0.05206298828125, -0.08685302734375, 0.070281982421875, -355.4962158203125, -20.5413818359375, 55.92193603515625, 121.1929931640625, -1.4152523279190063, -2.909433364868164, -2.788196563720703, 0.13363027572631836, -0.9079054594039917, 9.766983032226562, 994.8084106445312, -0.027080349624156952, 0.018432559445500374, -0.7437822222709656, 96.0, 3.6452279906930234, -0.8997920457845547, android.sensor.orientation
1551581966661, 1.3130340576171875, 1.855926513671875, 12.242279052734375, 0.05206298828125, -0.08685302734375, 0.070281982421875, -355.4962158203125, -20.5413818359375, 55.92193603515625, 121.1929931640625, -1.4152523279190063, -2.909433364868164, -2.788196563720703, 0.13363027572631836, -0.9079054594039917, 9.766983032226562, 994.8033447265625, -0.027080349624156952, 0.018432559445500374, -0.7437822222709656, 96.0, 3.6452279906930234, -0.8997920457845547, android.sensor.pressure
1551581966696, 1.3130340576171875, 1.855926513671875, 12.242279052734375, 0.05206298828125, -0.08685302734375, 0.070281982421875, -357.50732421875, -16.16058349609375, 56.732177734375, 121.1929931640625, -1.4152523279190063, -2.909433364868164, -2.788196563720703, 0.13363027572631836, -0.9079054594039917, 9.766983032226562, 994.8033447265625, -0.027080349624156952, 0.018432559445500374, -0.7437822222709656, 96.0, 3.6452279906930234, -0.8997920457845547, android.sensor.magnetic_field
1551581966714, 1.3130340576171875, 1.855926513671875, 12.242279052734375, -0.1456756591796875, 0.1191253662109375, -0.620391845703125, -357.50732421875, -16.16058349609375, 56.732177734375, 121.1929931640625, -1.4152523279190063, -2.909433364868164, -2.788196563720703, 0.13363027572631836, -0.9079054594039917, 9.766983032226562, 994.8033447265625, -0.027080349624156952, 0.018432559445500374, -0.7437822222709656, 96.0, 3.6452279906930234, -0.8997920457845547, android.sensor.gyroscope
1551581966715, 0.4336700439453125, 1.746002197265625, 9.59844970703125, -0.1456756591796875, 0.1191253662109375, -0.620391845703125, -357.50732421875, -16.16058349609375, 56.732177734375, 121.1929931640625, -1.4152523279190063, -2.909433364868164, -2.788196563720703, 0.13363027572631836, -0.9079054594039917, 9.766983032226562, 994.8033447265625, -0.027080349624156952, 0.018432559445500374, -0.7437822222709656, 96.0, 3.6452279906930234, -0.8997920457845547, android.sensor.accelerometer
1551581966722, 0.4336700439453125, 1.746002197265625, 9.59844970703125, -0.1456756591796875, 0.1191253662109375, -0.620391845703125, -357.50732421875, -16.16058349609375, 56.732177734375, 121.1929931640625, -1.4152523279190063, -2.909433364868164, -2.788196563720703, 0.11436072736978531, -1.0503334999084473, 9.75294017791748, 994.8033447265625, -0.027080349624156952, 0.018432559445500374, -0.7437822222709656, 96.0, 3.6452279906930234, -0.8997920457845547, android.sensor.gravity
1551581966736, 0.4336700439453125, 1.746002197265625, 9.59844970703125, -0.1456756591796875, 0.1191253662109375, -0.620391845703125, -357.50732421875, -16.16058349609375, 56.732177734375, 121.1929931640625, -0.15727318823337555, -2.5353667736053467, 0.7968349456787109, 0.11436072736978531, -1.0503334999084473, 9.75294017791748, 994.8033447265625, -0.027080349624156952, 0.018432559445500374, -0.7437822222709656, 96.0, 3.6452279906930234, -0.8997920457845547, android.sensor.linear_acceleration
1551581966747, 0.4336700439453125, 1.746002197265625, 9.59844970703125, -0.1456756591796875, 0.1191253662109375, -0.620391845703125, -357.50732421875, -16.16058349609375, 56.732177734375, 121.1929931640625, -0.15727318823337555, -2.5353667736053467, 0.7968349456787109, 0.11436072736978531, -1.0503334999084473, 9.75294017791748, 994.8033447265625, -0.037181541323661804, 0.02201652154326439, -0.7624804377555847, 99.0, 4.679429194720143, -1.625623975885645, android.sensor.rotation_vector
1551581966747, 0.4336700439453125, 1.746002197265625, 9.59844970703125, -0.1456756591796875, 0.1191253662109375, -0.620391845703125, -357.50732421875, -16.16058349609375, 56.732177734375, 121.1929931640625, -0.15727318823337555, -2.5353667736053467, 0.7968349456787109, 0.11436072736978531, -1.0503334999084473, 9.75294017791748, 994.8033447265625, -0.037181541323661804, 0.02201652154326439, -0.7624804377555847, 99.0, 4.679429194720143, -1.625623975885645, android.sensor.orientation
1551581966764, 0.4336700439453125, 1.746002197265625, 9.59844970703125, -0.1456756591796875, 0.1191253662109375, -0.620391845703125, -357.50732421875, -16.16058349609375, 56.732177734375, 121.1929931640625, -0.15727318823337555, -2.5353667736053467, 0.7968349456787109, 0.11436072736978531, -1.0503334999084473, 9.75294017791748, 994.80078125, -0.037181541323661804, 0.02201652154326439, -0.7624804377555847, 99.0, 4.679429194720143, -1.625623975885645, android.sensor.pressure
1551581966789, 0.4336700439453125, 1.746002197265625, 9.59844970703125, -0.1456756591796875, 0.1191253662109375, -0.620391845703125, -358.97674560546875, -12.83111572265625, 56.22100830078125, 121.1929931640625, -0.15727318823337555, -2.5353667736053467, 0.7968349456787109, 0.11436072736978531, -1.0503334999084473, 9.75294017791748, 994.80078125, -0.037181541323661804, 0.02201652154326439, -0.7624804377555847, 99.0, 4.679429194720143, -1.625623975885645, android.sensor.magnetic_field
1551581966813, 0.4336700439453125, 1.746002197265625, 9.59844970703125, -0.4183502197265625, -0.2821197509765625, -0.15045166015625, -358.97674560546875, -12.83111572265625, 56.22100830078125, 121.1929931640625, -0.15727318823337555, -2.5353667736053467, 0.7968349456787109, 0.11436072736978531, -1.0503334999084473, 9.75294017791748, 994.80078125, -0.037181541323661804, 0.02201652154326439, -0.7624804377555847, 99.0, 4.679429194720143, -1.625623975885645, android.sensor.gyroscope
1551581966814, 0.014862060546875, 0.7554931640625, 6.8887481689453125, -0.4183502197265625, -0.2821197509765625, -0.15045166015625, -358.97674560546875, -12.83111572265625, 56.22100830078125, 121.1929931640625, -0.15727318823337555, -2.5353667736053467, 0.7968349456787109, 0.11436072736978531, -1.0503334999084473, 9.75294017791748, 994.80078125, -0.037181541323661804, 0.02201652154326439, -0.7624804377555847, 99.0, 4.679429194720143, -1.625623975885645, android.sensor.accelerometer
1551581966818, 0.014862060546875, 0.7554931640625, 6.8887481689453125, -0.4183502197265625, -0.2821197509765625, -0.15045166015625, -358.97674560546875, -12.83111572265625, 56.22100830078125, 121.1929931640625, -0.15727318823337555, -2.5353667736053467, 0.7968349456787109, 0.3712126612663269, -1.459834098815918, 9.6936674118042, 994.80078125, -0.037181541323661804, 0.02201652154326439, -0.7624804377555847, 99.0, 4.679429194720143, -1.625623975885645, android.sensor.gravity
1551581966833, 0.014862060546875, 0.7554931640625, 6.8887481689453125, -0.4183502197265625, -0.2821197509765625, -0.15045166015625, -358.97674560546875, -12.83111572265625, 56.22100830078125, 121.1929931640625, 0.38718754053115845, -2.1488194465637207, 3.145233154296875, 0.3712126612663269, -1.459834098815918, 9.6936674118042, 994.80078125, -0.037181541323661804, 0.02201652154326439, -0.7624804377555847, 99.0, 4.679429194720143, -1.625623975885645, android.sensor.linear_acceleration
1551581966843, 0.014862060546875, 0.7554931640625, 6.8887481689453125, -0.4183502197265625, -0.2821197509765625, -0.15045166015625, -358.97674560546875, -12.83111572265625, 56.22100830078125, 121.1929931640625, 0.38718754053115845, -2.1488194465637207, 3.145233154296875, 0.3712126612663269, -1.459834098815918, 9.6936674118042, 994.80078125, -0.05886189267039299, 0.0322059728205204, -0.7621428370475769, 99.0, 7.174755991940615, -2.7872091684288547, android.sensor.rotation_vector
1551581966846, 0.014862060546875, 0.7554931640625, 6.8887481689453125, -0.4183502197265625, -0.2821197509765625, -0.15045166015625, -358.97674560546875, -12.83111572265625, 56.22100830078125, 121.1929931640625, 0.38718754053115845, -2.1488194465637207, 3.145233154296875, 0.3712126612663269, -1.459834098815918, 9.6936674118042, 994.80078125, -0.05886189267039299, 0.0322059728205204, -0.7621428370475769, 99.0, 7.174755991940615, -2.7872091684288547, android.sensor.orientation
1551581966865, 0.014862060546875, 0.7554931640625, 6.8887481689453125, -0.4183502197265625, -0.2821197509765625, -0.15045166015625, -358.97674560546875, -12.83111572265625, 56.22100830078125, 121.1929931640625, 0.38718754053115845, -2.1488194465637207, 3.145233154296875, 0.3712126612663269, -1.459834098815918, 9.6936674118042, 994.80078125, -0.05886189267039299, 0.0322059728205204, -0.7621428370475769, 99.0, 7.174755991940615, -2.7872091684288547, android.sensor.pressure
1551581966889, 0.014862060546875, 0.7554931640625, 6.8887481689453125, -0.4183502197265625, -0.2821197509765625, -0.15045166015625, -357.806396484375, -7.01141357421875, 59.942626953125, 121.1929931640625, 0.38718754053115845, -2.1488194465637207, 3.145233154296875, 0.3712126612663269, -1.459834098815918, 9.6936674118042, 994.80078125, -0.05886189267039299, 0.0322059728205204, -0.7621428370475769, 99.0, 7.174755991940615, -2.7872091684288547, android.sensor.magnetic_field
1551581966906, 0.014862060546875, 0.7554931640625, 6.8887481689453125, -0.244781494140625, -0.021759033203125, 0.1683502197265625, -357.806396484375, -7.01141357421875, 59.942626953125, 121.1929931640625, 0.38718754053115845, -2.1488194465637207, 3.145233154296875, 0.3712126612663269, -1.459834098815918, 9.6936674118042, 994.80078125, -0.05886189267039299, 0.0322059728205204, -0.7621428370475769, 99.0, 7.174755991940615, -2.7872091684288547, android.sensor.gyroscope
1551581966909, -1.35546875, 0.7735443115234375, 7.2512969970703125, -0.244781494140625, -0.021759033203125, 0.1683502197265625, -357.806396484375, -7.01141357421875, 59.942626953125, 121.1929931640625, 0.38718754053115845, -2.1488194465637207, 3.145233154296875, 0.3712126612663269, -1.459834098815918, 9.6936674118042, 994.80078125, -0.05886189267039299, 0.0322059728205204, -0.7621428370475769, 99.0, 7.174755991940615, -2.7872091684288547, android.sensor.accelerometer
1551581966913, -1.35546875, 0.7735443115234375, 7.2512969970703125, -0.244781494140625, -0.021759033203125, 0.1683502197265625, -357.806396484375, -7.01141357421875, 59.942626953125, 121.1929931640625, 0.38718754053115845, -2.1488194465637207, 3.145233154296875, 0.34307289123535156, -1.6625248193740845, 9.662009239196777, 994.80078125, -0.05886189267039299, 0.0322059728205204, -0.7621428370475769, 99.0, 7.174755991940615, -2.7872091684288547, android.sensor.gravity
1551581966927, -1.35546875, 0.7735443115234375, 7.2512969970703125, -0.244781494140625, -0.021759033203125, 0.1683502197265625, -357.806396484375, -7.01141357421875, 59.942626953125, 121.1929931640625, 1.6836230754852295, -2.4567294120788574, 1.2849388122558594, 0.34307289123535156, -1.6625248193740845, 9.662009239196777, 994.80078125, -0.05886189267039299, 0.0322059728205204, -0.7621428370475769, 99.0, 7.174755991940615, -2.7872091684288547, android.sensor.linear_acceleration
1551581966932, -1.35546875, 0.7735443115234375, 7.2512969970703125, -0.244781494140625, -0.021759033203125, 0.1683502197265625, -357.806396484375, -7.01141357421875, 59.942626953125, 121.1929931640625, 1.6836230754852295, -2.4567294120788574, 1.2849388122558594, 0.34307289123535156, -1.6625248193740845, 9.662009239196777, 994.80078125, -0.0547996424138546, 0.039899710565805435, -0.7519088983535767, 97.0, 7.5779044926060335, -1.7388146178630368, android.sensor.rotation_vector
1551581966937, -1.35546875, 0.7735443115234375, 7.2512969970703125, -0.244781494140625, -0.021759033203125, 0.1683502197265625, -357.806396484375, -7.01141357421875, 59.942626953125, 121.1929931640625, 1.6836230754852295, -2.4567294120788574, 1.2849388122558594, 0.34307289123535156, -1.6625248193740845, 9.662009239196777, 994.80078125, -0.0547996424138546, 0.039899710565805435, -0.7519088983535767, 97.0, 7.5779044926060335, -1.7388146178630368, android.sensor.orientation
1551581966957, -1.35546875, 0.7735443115234375, 7.2512969970703125, -0.244781494140625, -0.021759033203125, 0.1683502197265625, -357.806396484375, -7.01141357421875, 59.942626953125, 121.1929931640625, 1.6836230754852295, -2.4567294120788574, 1.2849388122558594, 0.34307289123535156, -1.6625248193740845, 9.662009239196777, 994.809814453125, -0.0547996424138546, 0.039899710565805435, -0.7519088983535767, 97.0, 7.5779044926060335, -1.7388146178630368, android.sensor.pressure
1551581966981, -1.35546875, 0.7735443115234375, 7.2512969970703125, -0.244781494140625, -0.021759033203125, 0.1683502197265625, -355.91583251953125, 1.29852294921875, 63.2415771484375, 121.1929931640625, 1.6836230754852295, -2.4567294120788574, 1.2849388122558594, 0.34307289123535156, -1.6625248193740845, 9.662009239196777, 994.809814453125, -0.0547996424138546, 0.039899710565805435, -0.7519088983535767, 97.0, 7.5779044926060335, -1.7388146178630368, android.sensor.magnetic_field
1551581967006, -1.35546875, 0.7735443115234375, 7.2512969970703125, 0.5959320068359375, 0.488250732421875, 1.0933685302734375, -355.91583251953125, 1.29852294921875, 63.2415771484375, 121.1929931640625, 1.6836230754852295, -2.4567294120788574, 1.2849388122558594, 0.34307289123535156, -1.6625248193740845, 9.662009239196777, 994.809814453125, -0.0547996424138546, 0.039899710565805435, -0.7519088983535767, 97.0, 7.5779044926060335, -1.7388146178630368, android.sensor.gyroscope
1551581967009, -1.555694580078125, 0.8996124267578125, 14.804611206054688, 0.5959320068359375, 0.488250732421875, 1.0933685302734375, -355.91583251953125, 1.29852294921875, 63.2415771484375, 121.1929931640625, 1.6836230754852295, -2.4567294120788574, 1.2849388122558594, 0.34307289123535156, -1.6625248193740845, 9.662009239196777, 994.809814453125, -0.0547996424138546, 0.039899710565805435, -0.7519088983535767, 97.0, 7.5779044926060335, -1.7388146178630368, android.sensor.accelerometer
1551581967013, -1.555694580078125, 0.8996124267578125, 14.804611206054688, 0.5959320068359375, 0.488250732421875, 1.0933685302734375, -355.91583251953125, 1.29852294921875, 63.2415771484375, 121.1929931640625, 1.6836230754852295, -2.4567294120788574, 1.2849388122558594, -0.22685180604457855, -1.0670017004013062, 9.749161720275879, 994.809814453125, -0.0547996424138546, 0.039899710565805435, -0.7519088983535767, 97.0, 7.5779044926060335, -1.7388146178630368, android.sensor.gravity
1551581967023, -1.555694580078125, 0.8996124267578125, 14.804611206054688, 0.5959320068359375, 0.488250732421875, 1.0933685302734375, -355.91583251953125, 1.29852294921875, 63.2415771484375, 121.1929931640625, 0.9840815663337708, -2.023721933364868, -5.886002540588379, -0.22685180604457855, -1.0670017004013062, 9.749161720275879, 994.809814453125, -0.0547996424138546, 0.039899710565805435, -0.7519088983535767, 97.0, 7.5779044926060335, -1.7388146178630368, android.sensor.linear_acceleration
1551581967033, -1.555694580078125, 0.8996124267578125, 14.804611206054688, 0.5959320068359375, 0.488250732421875, 1.0933685302734375, -355.91583251953125, 1.29852294921875, 63.2415771484375, 121.1929931640625, 0.9840815663337708, -2.023721933364868, -5.886002540588379, -0.22685180604457855, -1.0670017004013062, 9.749161720275879, 994.809814453125, -0.026514358818531036, 0.024672728031873703, -0.7135777473449707, 91.0, 4.1468370833387596, -0.1904974310668803, android.sensor.rotation_vector
1551581967037, -1.555694580078125, 0.8996124267578125, 14.804611206054688, 0.5959320068359375, 0.488250732421875, 1.0933685302734375, -355.91583251953125, 1.29852294921875, 63.2415771484375, 121.1929931640625, 0.9840815663337708, -2.023721933364868, -5.886002540588379, -0.22685180604457855, -1.0670017004013062, 9.749161720275879, 994.809814453125, -0.026514358818531036, 0.024672728031873703, -0.7135777473449707, 91.0, 4.1468370833387596, -0.1904974310668803, android.sensor.orientation
1551581967062, -1.555694580078125, 0.8996124267578125, 14.804611206054688, 0.5959320068359375, 0.488250732421875, 1.0933685302734375, -355.91583251953125, 1.29852294921875, 63.2415771484375, 121.1929931640625, 0.9840815663337708, -2.023721933364868, -5.886002540588379, -0.22685180604457855, -1.0670017004013062, 9.749161720275879, 994.809814453125, -0.026514358818531036, 0.024672728031873703, -0.7135777473449707, 91.0, 4.1468370833387596, -0.1904974310668803, android.sensor.pressure
1551581967084, -1.555694580078125, 0.8996124267578125, 14.804611206054688, 0.5959320068359375, 0.488250732421875, 1.0933685302734375, -350.8758544921875, 18.218994140625, 58.20159912109375, 121.1929931640625, 0.9840815663337708, -2.023721933364868, -5.886002540588379, -0.22685180604457855, -1.0670017004013062, 9.749161720275879, 994.809814453125, -0.026514358818531036, 0.024672728031873703, -0.7135777473449707, 91.0, 4.1468370833387596, -0.1904974310668803, android.sensor.magnetic_field
1551581967105, -1.555694580078125, 0.8996124267578125, 14.804611206054688, -0.501983642578125, -0.20184326171875, 0.169281005859375, -350.8758544921875, 18.218994140625, 58.20159912109375, 121.1929931640625, 0.9840815663337708, -2.023721933364868, -5.886002540588379, -0.22685180604457855, -1.0670017004013062, 9.749161720275879, 994.809814453125, -0.026514358818531036, 0.024672728031873703, -0.7135777473449707, 91.0, 4.1468370833387596, -0.1904974310668803, android.sensor.gyroscope
1551581967106, -0.2148284912109375, 0.21514892578125, 13.798263549804688, -0.501983642578125, -0.20184326171875, 0.169281005859375, -350.8758544921875, 18.218994140625, 58.20159912109375, 121.1929931640625, 0.9840815663337708, -2.023721933364868, -5.886002540588379, -0.22685180604457855, -1.0670017004013062, 9.749161720275879, 994.809814453125, -0.026514358818531036, 0.024672728031873703, -0.7135777473449707, 91.0, 4.1468370833387596, -0.1904974310668803, android.sensor.accelerometer
1551581967113, -0.2148284912109375, 0.21514892578125, 13.798263549804688, -0.501983642578125, -0.20184326171875, 0.169281005859375, -350.8758544921875, 18.218994140625, 58.20159912109375, 121.1929931640625, 0.9840815663337708, -2.023721933364868, -5.886002540588379, -0.08443725854158401, -1.5792895555496216, 9.68167495727539, 994.809814453125, -0.026514358818531036, 0.024672728031873703, -0.7135777473449707, 91.0, 4.1468370833387596, -0.1904974310668803, android.sensor.gravity
1551581967121, -0.2148284912109375, 0.21514892578125, 13.798263549804688, -0.501983642578125, -0.20184326171875, 0.169281005859375, -350.8758544921875, 18.218994140625, 58.20159912109375, 121.1929931640625, 0.10180593281984329, -1.020193338394165, -2.2286834716796875, -0.08443725854158401, -1.5792895555496216, 9.68167495727539, 994.809814453125, -0.026514358818531036, 0.024672728031873703, -0.7135777473449707, 91.0, 4.1468370833387596, -0.1904974310668803, android.sensor.linear_acceleration
1551581967135, -0.2148284912109375, 0.21514892578125, 13.798263549804688, -0.501983642578125, -0.20184326171875, 0.169281005859375, -350.8758544921875, 18.218994140625, 58.20159912109375, 121.1929931640625, 0.10180593281984329, -1.020193338394165, -2.2286834716796875, -0.08443725854158401, -1.5792895555496216, 9.68167495727539, 994.809814453125, -0.04705679044127464, 0.04231094941496849, -0.7133261561393738, 91.0, 7.241477548621531, -0.46611051845591744, android.sensor.rotation_vector
1551581967137, -0.2148284912109375, 0.21514892578125, 13.798263549804688, -0.501983642578125, -0.20184326171875, 0.169281005859375, -350.8758544921875, 18.218994140625, 58.20159912109375, 121.1929931640625, 0.10180593281984329, -1.020193338394165, -2.2286834716796875, -0.08443725854158401, -1.5792895555496216, 9.68167495727539, 994.809814453125, -0.04705679044127464, 0.04231094941496849, -0.7133261561393738, 91.0, 7.241477548621531, -0.46611051845591744, android.sensor.orientation
1551581967162, -0.2148284912109375, 0.21514892578125, 13.798263549804688, -0.501983642578125, -0.20184326171875, 0.169281005859375, -350.8758544921875, 18.218994140625, 58.20159912109375, 121.1929931640625, 0.10180593281984329, -1.020193338394165, -2.2286834716796875, -0.08443725854158401, -1.5792895555496216, 9.68167495727539, 994.8179931640625, -0.04705679044127464, 0.04231094941496849, -0.7133261561393738, 91.0, 7.241477548621531, -0.46611051845591744, android.sensor.pressure
1551581967181, -0.2148284912109375, 0.21514892578125, 13.798263549804688, -0.501983642578125, -0.20184326171875, 0.169281005859375, -345.9869384765625, 25.4791259765625, 48.96087646484375, 121.1929931640625, 0.10180593281984329, -1.020193338394165, -2.2286834716796875, -0.08443725854158401, -1.5792895555496216, 9.68167495727539, 994.8179931640625, -0.04705679044127464, 0.04231094941496849, -0.7133261561393738, 91.0, 7.241477548621531, -0.46611051845591744, android.sensor.magnetic_field
1551581967198, -0.2148284912109375, 0.21514892578125, 13.798263549804688, -0.23968505859375, -0.127593994140625, -0.069427490234375, -345.9869384765625, 25.4791259765625, 48.96087646484375, 121.1929931640625, 0.10180593281984329, -1.020193338394165, -2.2286834716796875, -0.08443725854158401, -1.5792895555496216, 9.68167495727539, 994.8179931640625, -0.04705679044127464, 0.04231094941496849, -0.7133261561393738, 91.0, 7.241477548621531, -0.46611051845591744, android.sensor.gyroscope
1551581967203, 0.7027435302734375, 0.7566986083984375, 7.0567779541015625, -0.23968505859375, -0.127593994140625, -0.069427490234375, -345.9869384765625, 25.4791259765625, 48.96087646484375, 121.1929931640625, 0.10180593281984329, -1.020193338394165, -2.2286834716796875, -0.08443725854158401, -1.5792895555496216, 9.68167495727539, 994.8179931640625, -0.04705679044127464, 0.04231094941496849, -0.7133261561393738, 91.0, 7.241477548621531, -0.46611051845591744, android.sensor.accelerometer
1551581967209, 0.7027435302734375, 0.7566986083984375, 7.0567779541015625, -0.23968505859375, -0.127593994140625, -0.069427490234375, -345.9869384765625, 25.4791259765625, 48.96087646484375, 121.1929931640625, 0.10180593281984329, -1.020193338394165, -2.2286834716796875, 0.05720297992229462, -1.7871019840240479, 9.64567756652832, 994.8179931640625, -0.04705679044127464, 0.04231094941496849, -0.7133261561393738, 91.0, 7.241477548621531, -0.46611051845591744, android.sensor.gravity
1551581967220, 0.7027435302734375, 0.7566986083984375, 7.0567779541015625, -0.23968505859375, -0.127593994140625, -0.069427490234375, -345.9869384765625, 25.4791259765625, 48.96087646484375, 121.1929931640625, -0.9178008437156677, -2.885927677154541, 1.6176204681396484, 0.05720297992229462, -1.7871019840240479, 9.64567756652832, 994.8179931640625, -0.04705679044127464, 0.04231094941496849, -0.7133261561393738, 91.0, 7.241477548621531, -0.46611051845591744, android.sensor.linear_acceleration
1551581967228, 0.7027435302734375, 0.7566986083984375, 7.0567779541015625, -0.23968505859375, -0.127593994140625, -0.069427490234375, -345.9869384765625, 25.4791259765625, 48.96087646484375, 121.1929931640625, -0.9178008437156677, -2.885927677154541, 1.6176204681396484, 0.05720297992229462, -1.7871019840240479, 9.64567756652832, 994.8179931640625, -0.05814259499311447, 0.03762032836675644, -0.7204650044441223, 92.0, 7.7266976023538225, -1.8425724484315236, android.sensor.rotation_vector
1551581967233, 0.7027435302734375, 0.7566986083984375, 7.0567779541015625, -0.23968505859375, -0.127593994140625, -0.069427490234375, -345.9869384765625, 25.4791259765625, 48.96087646484375, 121.1929931640625, -0.9178008437156677, -2.885927677154541, 1.6176204681396484, 0.05720297992229462, -1.7871019840240479, 9.64567756652832, 994.8179931640625, -0.05814259499311447, 0.03762032836675644, -0.7204650044441223, 92.0, 7.7266976023538225, -1.8425724484315236, android.sensor.orientation
1551581967262, 0.7027435302734375, 0.7566986083984375, 7.0567779541015625, -0.23968505859375, -0.127593994140625, -0.069427490234375, -345.9869384765625, 25.4791259765625, 48.96087646484375, 121.1929931640625, -0.9178008437156677, -2.885927677154541, 1.6176204681396484, 0.05720297992229462, -1.7871019840240479, 9.64567756652832, 994.8072509765625, -0.05814259499311447, 0.03762032836675644, -0.7204650044441223, 92.0, 7.7266976023538225, -1.8425724484315236, android.sensor.pressure
1551581967267, 0.7027435302734375, 0.7566986083984375, 7.0567779541015625, -0.23968505859375, -0.127593994140625, -0.069427490234375, -345.9869384765625, 25.4791259765625, 48.96087646484375, 173.7379913330078, -0.9178008437156677, -2.885927677154541, 1.6176204681396484, 0.05720297992229462, -1.7871019840240479, 9.64567756652832, 994.8072509765625, -0.05814259499311447, 0.03762032836675644, -0.7204650044441223, 92.0, 7.7266976023538225, -1.8425724484315236, android.sensor.light
1551581967280, 0.7027435302734375, 0.7566986083984375, 7.0567779541015625, -0.23968505859375, -0.127593994140625, -0.069427490234375, -342.236328125, 33.69903564453125, 35.79254150390625, 173.7379913330078, -0.9178008437156677, -2.885927677154541, 1.6176204681396484, 0.05720297992229462, -1.7871019840240479, 9.64567756652832, 994.8072509765625, -0.05814259499311447, 0.03762032836675644, -0.7204650044441223, 92.0, 7.7266976023538225, -1.8425724484315236, android.sensor.magnetic_field
1551581967299, 0.7027435302734375, 0.7566986083984375, 7.0567779541015625, 1.0439605712890625, -0.1367340087890625, -0.4891815185546875, -342.236328125, 33.69903564453125, 35.79254150390625, 173.7379913330078, -0.9178008437156677, -2.885927677154541, 1.6176204681396484, 0.05720297992229462, -1.7871019840240479, 9.64567756652832, 994.8072509765625, -0.05814259499311447, 0.03762032836675644, -0.7204650044441223, 92.0, 7.7266976023538225, -1.8425724484315236, android.sensor.gyroscope
1551581967304, 2.5991668701171875, 1.3445281982421875, 12.83587646484375, 1.0439605712890625, -0.1367340087890625, -0.4891815185546875, -342.236328125, 33.69903564453125, 35.79254150390625, 173.7379913330078, -0.9178008437156677, -2.885927677154541, 1.6176204681396484, 0.05720297992229462, -1.7871019840240479, 9.64567756652832, 994.8072509765625, -0.05814259499311447, 0.03762032836675644, -0.7204650044441223, 92.0, 7.7266976023538225, -1.8425724484315236, android.sensor.accelerometer
1551581967306, 2.5991668701171875, 1.3445281982421875, 12.83587646484375, 1.0439605712890625, -0.1367340087890625, -0.4891815185546875, -342.236328125, 33.69903564453125, 35.79254150390625, 173.7379913330078, -0.9178008437156677, -2.885927677154541, 1.6176204681396484, 0.29572412371635437, -0.8191013336181641, 9.771270751953125, 994.8072509765625, -0.05814259499311447, 0.03762032836675644, -0.7204650044441223, 92.0, 7.7266976023538225, -1.8425724484315236, android.sensor.gravity
1551581967318, 2.5991668701171875, 1.3445281982421875, 12.83587646484375, 1.0439605712890625, -0.1367340087890625, -0.4891815185546875, -342.236328125, 33.69903564453125, 35.79254150390625, 173.7379913330078, -2.593909502029419, -1.2871811389923096, -4.295594215393066, 0.29572412371635437, -0.8191013336181641, 9.771270751953125, 994.8072509765625, -0.05814259499311447, 0.03762032836675644, -0.7204650044441223, 92.0, 7.7266976023538225, -1.8425724484315236, android.sensor.linear_acceleration
1551581967324, 2.5991668701171875, 1.3445281982421875, 12.83587646484375, 1.0439605712890625, -0.1367340087890625, -0.4891815185546875, -342.236328125, 33.69903564453125, 35.79254150390625, 173.7379913330078, -2.593909502029419, -1.2871811389923096, -4.295594215393066, 0.29572412371635437, -0.8191013336181641, 9.771270751953125, 994.8072509765625, -0.04689086228609085, 0.01029952708631754, -0.7492788434028625, 97.0, 4.437892361327336, -3.2580540218357963, android.sensor.rotation_vector
1551581967329, 2.5991668701171875, 1.3445281982421875, 12.83587646484375, 1.0439605712890625, -0.1367340087890625, -0.4891815185546875, -342.236328125, 33.69903564453125, 35.79254150390625, 173.7379913330078, -2.593909502029419, -1.2871811389923096, -4.295594215393066, 0.29572412371635437, -0.8191013336181641, 9.771270751953125, 994.8072509765625, -0.04689086228609085, 0.01029952708631754, -0.7492788434028625, 97.0, 4.437892361327336, -3.2580540218357963, android.sensor.orientation
1551581967359, 2.5991668701171875, 1.3445281982421875, 12.83587646484375, 1.0439605712890625, -0.1367340087890625, -0.4891815185546875, -342.236328125, 33.69903564453125, 35.79254150390625, 173.7379913330078, -2.593909502029419, -1.2871811389923096, -4.295594215393066, 0.29572412371635437, -0.8191013336181641, 9.771270751953125, 994.8072509765625, -0.04689086228609085, 0.01029952708631754, -0.7492788434028625, 97.0, 4.437892361327336, -3.2580540218357963, android.sensor.pressure
1551581967374, 2.5991668701171875, 1.3445281982421875, 12.83587646484375, 1.0439605712890625, -0.1367340087890625, -0.4891815185546875, -343.61572265625, 37.65869140625, 14.19219970703125, 173.7379913330078, -2.593909502029419, -1.2871811389923096, -4.295594215393066, 0.29572412371635437, -0.8191013336181641, 9.771270751953125, 994.8072509765625, -0.04689086228609085, 0.01029952708631754, -0.7492788434028625, 97.0, 4.437892361327336, -3.2580540218357963, android.sensor.magnetic_field
1551581967395, 2.5991668701171875, 1.3445281982421875, 12.83587646484375, -0.3615570068359375, -0.1802215576171875, -1.0380096435546875, -343.61572265625, 37.65869140625, 14.19219970703125, 173.7379913330078, -2.593909502029419, -1.2871811389923096, -4.295594215393066, 0.29572412371635437, -0.8191013336181641, 9.771270751953125, 994.8072509765625, -0.04689086228609085, 0.01029952708631754, -0.7492788434028625, 97.0, 4.437892361327336, -3.2580540218357963, android.sensor.gyroscope
1551581967397, 0.8484649658203125, -3.1711273193359375, 9.0108642578125, -0.3615570068359375, -0.1802215576171875, -1.0380096435546875, -343.61572265625, 37.65869140625, 14.19219970703125, 173.7379913330078, -2.593909502029419, -1.2871811389923096, -4.295594215393066, 0.29572412371635437, -0.8191013336181641, 9.771270751953125, 994.8072509765625, -0.04689086228609085, 0.01029952708631754, -0.7492788434028625, 97.0, 4.437892361327336, -3.2580540218357963, android.sensor.accelerometer
1551581967411, 0.8484649658203125, -3.1711273193359375, 9.0108642578125, -0.3615570068359375, -0.1802215576171875, -1.0380096435546875, -343.61572265625, 37.65869140625, 14.19219970703125, 173.7379913330078, -2.593909502029419, -1.2871811389923096, -4.295594215393066, 0.5696840286254883, -1.0624194145202637, 9.735647201538086, 994.8072509765625, -0.04689086228609085, 0.01029952708631754, -0.7492788434028625, 97.0, 4.437892361327336, -3.2580540218357963, android.sensor.gravity
1551581967412, 0.8484649658203125, -3.1711273193359375, 9.0108642578125, -0.3615570068359375, -0.1802215576171875, -1.0380096435546875, -343.61572265625, 37.65869140625, 14.19219970703125, 173.7379913330078, 0.2876550555229187, 1.604210615158081, 2.9854202270507812, 0.5696840286254883, -1.0624194145202637, 9.735647201538086, 994.8072509765625, -0.04689086228609085, 0.01029952708631754, -0.7492788434028625, 97.0, 4.437892361327336, -3.2580540218357963, android.sensor.linear_acceleration
1551581967420, 0.8484649658203125, -3.1711273193359375, 9.0108642578125, -0.3615570068359375, -0.1802215576171875, -1.0380096435546875, -343.61572265625, 37.65869140625, 14.19219970703125, 173.7379913330078, 0.2876550555229187, 1.604210615158081, 2.9854202270507812, 0.5696840286254883, -1.0624194145202637, 9.735647201538086, 994.8072509765625, -0.052442923188209534, 0.002563280751928687, -0.7661283612251282, 100.0, 4.077808203378849, -4.4315398585124015, android.sensor.rotation_vector
1551581967425, 0.8484649658203125, -3.1711273193359375, 9.0108642578125, -0.3615570068359375, -0.1802215576171875, -1.0380096435546875, -343.61572265625, 37.65869140625, 14.19219970703125, 173.7379913330078, 0.2876550555229187, 1.604210615158081, 2.9854202270507812, 0.5696840286254883, -1.0624194145202637, 9.735647201538086, 994.8072509765625, -0.052442923188209534, 0.002563280751928687, -0.7661283612251282, 100.0, 4.077808203378849, -4.4315398585124015, android.sensor.orientation
1551581967457, 0.8484649658203125, -3.1711273193359375, 9.0108642578125, -0.3615570068359375, -0.1802215576171875, -1.0380096435546875, -343.61572265625, 37.65869140625, 14.19219970703125, 173.7379913330078, 0.2876550555229187, 1.604210615158081, 2.9854202270507812, 0.5696840286254883, -1.0624194145202637, 9.735647201538086, 994.835693359375, -0.052442923188209534, 0.002563280751928687, -0.7661283612251282, 100.0, 4.077808203378849, -4.4315398585124015, android.sensor.pressure
1551581967469, 0.8484649658203125, -3.1711273193359375, 9.0108642578125, -0.3615570068359375, -0.1802215576171875, -1.0380096435546875, -350.27618408203125, 34.05914306640625, -2.48870849609375, 173.7379913330078, 0.2876550555229187, 1.604210615158081, 2.9854202270507812, 0.5696840286254883, -1.0624194145202637, 9.735647201538086, 994.835693359375, -0.052442923188209534, 0.002563280751928687, -0.7661283612251282, 100.0, 4.077808203378849, -4.4315398585124015, android.sensor.magnetic_field
1551581967489, 0.8484649658203125, -3.1711273193359375, 9.0108642578125, 0.414215087890625, -0.27032470703125, 0.57611083984375, -350.27618408203125, 34.05914306640625, -2.48870849609375, 173.7379913330078, 0.2876550555229187, 1.604210615158081, 2.9854202270507812, 0.5696840286254883, -1.0624194145202637, 9.735647201538086, 994.835693359375, -0.052442923188209534, 0.002563280751928687, -0.7661283612251282, 100.0, 4.077808203378849, -4.4315398585124015, android.sensor.gyroscope
1551581967493, -2.9486541748046875, 0.7638092041015625, 3.2144927978515625, 0.414215087890625, -0.27032470703125, 0.57611083984375, -350.27618408203125, 34.05914306640625, -2.48870849609375, 173.7379913330078, 0.2876550555229187, 1.604210615158081, 2.9854202270507812, 0.5696840286254883, -1.0624194145202637, 9.735647201538086, 994.835693359375, -0.052442923188209534, 0.002563280751928687, -0.7661283612251282, 100.0, 4.077808203378849, -4.4315398585124015, android.sensor.accelerometer
1551581967498, -2.9486541748046875, 0.7638092041015625, 3.2144927978515625, 0.414215087890625, -0.27032470703125, 0.57611083984375, -350.27618408203125, 34.05914306640625, -2.48870849609375, 173.7379913330078, 0.2876550555229187, 1.604210615158081, 2.9854202270507812, 0.7368101477622986, -0.7187573313713074, 9.755849838256836, 994.835693359375, -0.052442923188209534, 0.002563280751928687, -0.7661283612251282, 100.0, 4.077808203378849, -4.4315398585124015, android.sensor.gravity
1551581967512, -2.9486541748046875, 0.7638092041015625, 3.2144927978515625, 0.414215087890625, -0.27032470703125, 0.57611083984375, -350.27618408203125, 34.05914306640625, -2.48870849609375, 173.7379913330078, 3.7696290016174316, -1.723458170890808, 4.774076461791992, 0.7368101477622986, -0.7187573313713074, 9.755849838256836, 994.835693359375, -0.052442923188209534, 0.002563280751928687, -0.7661283612251282, 100.0, 4.077808203378849, -4.4315398585124015, android.sensor.linear_acceleration
1551581967523, -2.9486541748046875, 0.7638092041015625, 3.2144927978515625, 0.414215087890625, -0.27032470703125, 0.57611083984375, -350.27618408203125, 34.05914306640625, -2.48870849609375, 173.7379913330078, 3.7696290016174316, -1.723458170890808, 4.774076461791992, 0.7368101477622986, -0.7187573313713074, 9.755849838256836, 994.835693359375, -0.04318031296133995, -0.01079376507550478, -0.737445592880249, 95.0, 2.4233090691684462, -4.491141369870402, android.sensor.rotation_vector
1551581967526, -2.9486541748046875, 0.7638092041015625, 3.2144927978515625, 0.414215087890625, -0.27032470703125, 0.57611083984375, -350.27618408203125, 34.05914306640625, -2.48870849609375, 173.7379913330078, 3.7696290016174316, -1.723458170890808, 4.774076461791992, 0.7368101477622986, -0.7187573313713074, 9.755849838256836, 994.835693359375, -0.04318031296133995, -0.01079376507550478, -0.737445592880249, 95.0, 2.4233090691684462, -4.491141369870402, android.sensor.orientation
1551581967566, -2.9486541748046875, 0.7638092041015625, 3.2144927978515625, 0.414215087890625, -0.27032470703125, 0.57611083984375, -350.27618408203125, 34.05914306640625, -2.48870849609375, 173.7379913330078, 3.7696290016174316, -1.723458170890808, 4.774076461791992, 0.7368101477622986, -0.7187573313713074, 9.755849838256836, 994.835693359375, -0.04318031296133995, -0.01079376507550478, -0.737445592880249, 95.0, 2.4233090691684462, -4.491141369870402, android.sensor.pressure
1551581967572, -2.9486541748046875, 0.7638092041015625, 3.2144927978515625, 0.414215087890625, -0.27032470703125, 0.57611083984375, -338.3056640625, 42.0684814453125, -19.82879638671875, 173.7379913330078, 3.7696290016174316, -1.723458170890808, 4.774076461791992, 0.7368101477622986, -0.7187573313713074, 9.755849838256836, 994.835693359375, -0.04318031296133995, -0.01079376507550478, -0.737445592880249, 95.0, 2.4233090691684462, -4.491141369870402, android.sensor.magnetic_field
1551581967594, -2.9486541748046875, 0.7638092041015625, 3.2144927978515625, 0.3954010009765625, 0.4336090087890625, 1.447296142578125, -338.3056640625, 42.0684814453125, -19.82879638671875, 173.7379913330078, 3.7696290016174316, -1.723458170890808, 4.774076461791992, 0.7368101477622986, -0.7187573313713074, 9.755849838256836, 994.835693359375, -0.04318031296133995, -0.01079376507550478, -0.737445592880249, 95.0, 2.4233090691684462, -4.491141369870402, android.sensor.gyroscope
1551581967594, -1.20880126953125, 0.975341796875, 13.45758056640625, 0.3954010009765625, 0.4336090087890625, 1.447296142578125, -338.3056640625, 42.0684814453125, -19.82879638671875, 173.7379913330078, 3.7696290016174316, -1.723458170890808, 4.774076461791992, 0.7368101477622986, -0.7187573313713074, 9.755849838256836, 994.835693359375, -0.04318031296133995, -0.01079376507550478, -0.737445592880249, 95.0, 2.4233090691684462, -4.491141369870402, android.sensor.accelerometer
1551581967597, -1.20880126953125, 0.975341796875, 13.45758056640625, 0.3954010009765625, 0.4336090087890625, 1.447296142578125, -338.3056640625, 42.0684814453125, -19.82879638671875, 173.7379913330078, 3.7696290016174316, -1.723458170890808, 4.774076461791992, 0.2962351441383362, -0.4797747731208801, 9.793782234191895, 994.835693359375, -0.04318031296133995, -0.01079376507550478, -0.737445592880249, 95.0, 2.4233090691684462, -4.491141369870402, android.sensor.gravity
1551581967613, -1.20880126953125, 0.975341796875, 13.45758056640625, 0.3954010009765625, 0.4336090087890625, 1.447296142578125, -338.3056640625, 42.0684814453125, -19.82879638671875, 173.7379913330078, 1.1309422254562378, -1.2278316020965576, -5.4220733642578125, 0.2962351441383362, -0.4797747731208801, 9.793782234191895, 994.835693359375, -0.04318031296133995, -0.01079376507550478, -0.737445592880249, 95.0, 2.4233090691684462, -4.491141369870402, android.sensor.linear_acceleration
1551581967623, -1.20880126953125, 0.975341796875, 13.45758056640625, 0.3954010009765625, 0.4336090087890625, 1.447296142578125, -338.3056640625, 42.0684814453125, -19.82879638671875, 173.7379913330078, 1.1309422254562378, -1.2278316020965576, -5.4220733642578125, 0.2962351441383362, -0.4797747731208801, 9.793782234191895, 994.835693359375, -0.04438445717096329, -0.007215176243335009, -0.6956626772880554, 88.0, 3.072818437771404, -4.140531538074368, android.sensor.rotation_vector
1551581967623, -1.20880126953125, 0.975341796875, 13.45758056640625, 0.3954010009765625, 0.4336090087890625, 1.447296142578125, -338.3056640625, 42.0684814453125, -19.82879638671875, 173.7379913330078, 1.1309422254562378, -1.2278316020965576, -5.4220733642578125, 0.2962351441383362, -0.4797747731208801, 9.793782234191895, 994.835693359375, -0.04438445717096329, -0.007215176243335009, -0.6956626772880554, 88.0, 3.072818437771404, -4.140531538074368, android.sensor.orientation
1551581967664, -1.20880126953125, 0.975341796875, 13.45758056640625, 0.3954010009765625, 0.4336090087890625, 1.447296142578125, -338.3056640625, 42.0684814453125, -19.82879638671875, 173.7379913330078, 1.1309422254562378, -1.2278316020965576, -5.4220733642578125, 0.2962351441383362, -0.4797747731208801, 9.793782234191895, 994.830078125, -0.04438445717096329, -0.007215176243335009, -0.6956626772880554, 88.0, 3.072818437771404, -4.140531538074368, android.sensor.pressure
1551581967670, -1.20880126953125, 0.975341796875, 13.45758056640625, 0.3954010009765625, 0.4336090087890625, 1.447296142578125, -323.3367919921875, 42.1295166015625, -35.577392578125, 173.7379913330078, 1.1309422254562378, -1.2278316020965576, -5.4220733642578125, 0.2962351441383362, -0.4797747731208801, 9.793782234191895, 994.830078125, -0.04438445717096329, -0.007215176243335009, -0.6956626772880554, 88.0, 3.072818437771404, -4.140531538074368, android.sensor.magnetic_field
1551581967692, -1.20880126953125, 0.975341796875, 13.45758056640625, -1.270050048828125, 0.100494384765625, 0.028289794921875, -323.3367919921875, 42.1295166015625, -35.577392578125, 173.7379913330078, 1.1309422254562378, -1.2278316020965576, -5.4220733642578125, 0.2962351441383362, -0.4797747731208801, 9.793782234191895, 994.830078125, -0.04438445717096329, -0.007215176243335009, -0.6956626772880554, 88.0, 3.072818437771404, -4.140531538074368, android.sensor.gyroscope
1551581967692, 1.6561431884765625, -1.6723175048828125, 15.11932373046875, -1.270050048828125, 0.100494384765625, 0.028289794921875, -323.3367919921875, 42.1295166015625, -35.577392578125, 173.7379913330078, 1.1309422254562378, -1.2278316020965576, -5.4220733642578125, 0.2962351441383362, -0.4797747731208801, 9.793782234191895, 994.830078125, -0.04438445717096329, -0.007215176243335009, -0.6956626772880554, 88.0, 3.072818437771404, -4.140531538074368, android.sensor.accelerometer
1551581967698, 1.6561431884765625, -1.6723175048828125, 15.11932373046875, -1.270050048828125, 0.100494384765625, 0.028289794921875, -323.3367919921875, 42.1295166015625, -35.577392578125, 173.7379913330078, 1.1309422254562378, -1.2278316020965576, -5.4220733642578125, 0.14180763065814972, -1.6527105569839478, 9.668741226196289, 994.830078125, -0.04438445717096329, -0.007215176243335009, -0.6956626772880554, 88.0, 3.072818437771404, -4.140531538074368, android.sensor.gravity
1551581967710, 1.6561431884765625, -1.6723175048828125, 15.11932373046875, -1.270050048828125, 0.100494384765625, 0.028289794921875, -323.3367919921875, 42.1295166015625, -35.577392578125, 173.7379913330078, -1.8678205013275146, -0.07312250137329102, -2.493314743041992, 0.14180763065814972, -1.6527105569839478, 9.668741226196289, 994.830078125, -0.04438445717096329, -0.007215176243335009, -0.6956626772880554, 88.0, 3.072818437771404, -4.140531538074368, android.sensor.linear_acceleration
1551581967716, 1.6561431884765625, -1.6723175048828125, 15.11932373046875, -1.270050048828125, 0.100494384765625, 0.028289794921875, -323.3367919921875, 42.1295166015625, -35.577392578125, 173.7379913330078, -1.8678205013275146, -0.07312250137329102, -2.493314743041992, 0.14180763065814972, -1.6527105569839478, 9.668741226196289, 994.830078125, -0.06304791569709778, 0.052328381687402725, -0.7098096609115601, 90.0, 9.352298846516137, -0.945669145779061, android.sensor.rotation_vector
1551581967725, 1.6561431884765625, -1.6723175048828125, 15.11932373046875, -1.270050048828125, 0.100494384765625, 0.028289794921875, -323.3367919921875, 42.1295166015625, -35.577392578125, 173.7379913330078, -1.8678205013275146, -0.07312250137329102, -2.493314743041992, 0.14180763065814972, -1.6527105569839478, 9.668741226196289, 994.830078125, -0.06304791569709778, 0.052328381687402725, -0.7098096609115601, 90.0, 9.352298846516137, -0.945669145779061, android.sensor.orientation
1551581967763, 1.6561431884765625, -1.6723175048828125, 15.11932373046875, -1.270050048828125, 0.100494384765625, 0.028289794921875, -323.3367919921875, 42.1295166015625, -35.577392578125, 173.7379913330078, -1.8678205013275146, -0.07312250137329102, -2.493314743041992, 0.14180763065814972, -1.6527105569839478, 9.668741226196289, 994.8270263671875, -0.06304791569709778, 0.052328381687402725, -0.7098096609115601, 90.0, 9.352298846516137, -0.945669145779061, android.sensor.pressure
1551581967763, 1.6561431884765625, -1.6723175048828125, 15.11932373046875, -1.270050048828125, 0.100494384765625, 0.028289794921875, -320.18585205078125, 42.72918701171875, -40.10772705078125, 173.7379913330078, -1.8678205013275146, -0.07312250137329102, -2.493314743041992, 0.14180763065814972, -1.6527105569839478, 9.668741226196289, 994.8270263671875, -0.06304791569709778, 0.052328381687402725, -0.7098096609115601, 90.0, 9.352298846516137, -0.945669145779061, android.sensor.magnetic_field
1551581967786, 1.6561431884765625, -1.6723175048828125, 15.11932373046875, -0.4244842529296875, 0.01995849609375, -0.4509429931640625, -320.18585205078125, 42.72918701171875, -40.10772705078125, 173.7379913330078, -1.8678205013275146, -0.07312250137329102, -2.493314743041992, 0.14180763065814972, -1.6527105569839478, 9.668741226196289, 994.8270263671875, -0.06304791569709778, 0.052328381687402725, -0.7098096609115601, 90.0, 9.352298846516137, -0.945669145779061, android.sensor.gyroscope
1551581967792, 1.42999267578125, -0.8349609375, 3.7732086181640625, -0.4244842529296875, 0.01995849609375, -0.4509429931640625, -320.18585205078125, 42.72918701171875, -40.10772705078125, 173.7379913330078, -1.8678205013275146, -0.07312250137329102, -2.493314743041992, 0.14180763065814972, -1.6527105569839478, 9.668741226196289, 994.8270263671875, -0.06304791569709778, 0.052328381687402725, -0.7098096609115601, 90.0, 9.352298846516137, -0.945669145779061, android.sensor.accelerometer
1551581967797, 1.42999267578125, -0.8349609375, 3.7732086181640625, -0.4244842529296875, 0.01995849609375, -0.4509429931640625, -320.18585205078125, 42.72918701171875, -40.10772705078125, 173.7379913330078, -1.8678205013275146, -0.07312250137329102, -2.493314743041992, 0.2339429259300232, -2.0241878032684326, 9.596043586730957, 994.8270263671875, -0.06304791569709778, 0.052328381687402725, -0.7098096609115601, 90.0, 9.352298846516137, -0.945669145779061, android.sensor.gravity
1551581967806, 1.42999267578125, -0.8349609375, 3.7732086181640625, -0.4244842529296875, 0.01995849609375, -0.4509429931640625, -320.18585205078125, 42.72918701171875, -40.10772705078125, 173.7379913330078, -1.3960602283477783, -1.082852840423584, 4.180082321166992, 0.2339429259300232, -2.0241878032684326, 9.596043586730957, 994.8270263671875, -0.06304791569709778, 0.052328381687402725, -0.7098096609115601, 90.0, 9.352298846516137, -0.945669145779061, android.sensor.linear_acceleration
1551581967820, 1.42999267578125, -0.8349609375, 3.7732086181640625, -0.4244842529296875, 0.01995849609375, -0.4509429931640625, -320.18585205078125, 42.72918701171875, -40.10772705078125, 173.7379913330078, -1.3960602283477783, -1.082852840423584, 4.180082321166992, 0.2339429259300232, -2.0241878032684326, 9.596043586730957, 994.8270263671875, -0.0756307914853096, 0.051922429352998734, -0.7211393117904663, 93.0, 10.297328088947332, -2.200116843225824, android.sensor.rotation_vector
1551581967820, 1.42999267578125, -0.8349609375, 3.7732086181640625, -0.4244842529296875, 0.01995849609375, -0.4509429931640625, -320.18585205078125, 42.72918701171875, -40.10772705078125, 173.7379913330078, -1.3960602283477783, -1.082852840423584, 4.180082321166992, 0.2339429259300232, -2.0241878032684326, 9.596043586730957, 994.8270263671875, -0.0756307914853096, 0.051922429352998734, -0.7211393117904663, 93.0, 10.297328088947332, -2.200116843225824, android.sensor.orientation
1551581967861, 1.42999267578125, -0.8349609375, 3.7732086181640625, -0.4244842529296875, 0.01995849609375, -0.4509429931640625, -320.18585205078125, 42.72918701171875, -40.10772705078125, 173.7379913330078, -1.3960602283477783, -1.082852840423584, 4.180082321166992, 0.2339429259300232, -2.0241878032684326, 9.596043586730957, 994.8270263671875, -0.0756307914853096, 0.051922429352998734, -0.7211393117904663, 93.0, 10.297328088947332, -2.200116843225824, android.sensor.pressure
1551581967861, 1.42999267578125, -0.8349609375, 3.7732086181640625, -0.4244842529296875, 0.01995849609375, -0.4509429931640625, -320.0958251953125, 41.558837890625, -52.947998046875, 173.7379913330078, -1.3960602283477783, -1.082852840423584, 4.180082321166992, 0.2339429259300232, -2.0241878032684326, 9.596043586730957, 994.8270263671875, -0.0756307914853096, 0.051922429352998734, -0.7211393117904663, 93.0, 10.297328088947332, -2.200116843225824, android.sensor.magnetic_field
1551581967883, 1.42999267578125, -0.8349609375, 3.7732086181640625, 0.5837554931640625, 0.0833892822265625, -0.9362640380859375, -320.0958251953125, 41.558837890625, -52.947998046875, 173.7379913330078, -1.3960602283477783, -1.082852840423584, 4.180082321166992, 0.2339429259300232, -2.0241878032684326, 9.596043586730957, 994.8270263671875, -0.0756307914853096, 0.051922429352998734, -0.7211393117904663, 93.0, 10.297328088947332, -2.200116843225824, android.sensor.gyroscope
1551581967887, 3.15899658203125, -2.4128265380859375, 13.034927368164062, 0.5837554931640625, 0.0833892822265625, -0.9362640380859375, -320.0958251953125, 41.558837890625, -52.947998046875, 173.7379913330078, -1.3960602283477783, -1.082852840423584, 4.180082321166992, 0.2339429259300232, -2.0241878032684326, 9.596043586730957, 994.8270263671875, -0.0756307914853096, 0.051922429352998734, -0.7211393117904663, 93.0, 10.297328088947332, -2.200116843225824, android.sensor.accelerometer
1551581967890, 3.15899658203125, -2.4128265380859375, 13.034927368164062, 0.5837554931640625, 0.0833892822265625, -0.9362640380859375, -320.0958251953125, 41.558837890625, -52.947998046875, 173.7379913330078, -1.3960602283477783, -1.082852840423584, 4.180082321166992, 0.3555394113063812, -1.5130317211151123, 9.686095237731934, 994.8270263671875, -0.0756307914853096, 0.051922429352998734, -0.7211393117904663, 93.0, 10.297328088947332, -2.200116843225824, android.sensor.gravity
1551581967901, 3.15899658203125, -2.4128265380859375, 13.034927368164062, 0.5837554931640625, 0.0833892822265625, -0.9362640380859375, -320.0958251953125, 41.558837890625, -52.947998046875, 173.7379913330078, -2.968341827392578, 1.691028118133545, -4.783405303955078, 0.3555394113063812, -1.5130317211151123, 9.686095237731934, 994.8270263671875, -0.0756307914853096, 0.051922429352998734, -0.7211393117904663, 93.0, 10.297328088947332, -2.200116843225824, android.sensor.linear_acceleration
1551581967919, 3.15899658203125, -2.4128265380859375, 13.034927368164062, 0.5837554931640625, 0.0833892822265625, -0.9362640380859375, -320.0958251953125, 41.558837890625, -52.947998046875, 173.7379913330078, -2.968341827392578, 1.691028118133545, -4.783405303955078, 0.3555394113063812, -1.5130317211151123, 9.686095237731934, 994.8270263671875, -0.07286767661571503, 0.036030542105436325, -0.7625519633293152, 100.0, 8.539035052231888, -3.7618381028453585, android.sensor.rotation_vector
1551581967919, 3.15899658203125, -2.4128265380859375, 13.034927368164062, 0.5837554931640625, 0.0833892822265625, -0.9362640380859375, -320.0958251953125, 41.558837890625, -52.947998046875, 173.7379913330078, -2.968341827392578, 1.691028118133545, -4.783405303955078, 0.3555394113063812, -1.5130317211151123, 9.686095237731934, 994.8270263671875, -0.07286767661571503, 0.036030542105436325, -0.7625519633293152, 100.0, 8.539035052231888, -3.7618381028453585, android.sensor.orientation
1551581967958, 3.15899658203125, -2.4128265380859375, 13.034927368164062, 0.5837554931640625, 0.0833892822265625, -0.9362640380859375, -328.88641357421875, 33.85009765625, -70.55816650390625, 173.7379913330078, -2.968341827392578, 1.691028118133545, -4.783405303955078, 0.3555394113063812, -1.5130317211151123, 9.686095237731934, 994.8270263671875, -0.07286767661571503, 0.036030542105436325, -0.7625519633293152, 100.0, 8.539035052231888, -3.7618381028453585, android.sensor.magnetic_field
1551581967958, 3.15899658203125, -2.4128265380859375, 13.034927368164062, 0.5837554931640625, 0.0833892822265625, -0.9362640380859375, -328.88641357421875, 33.85009765625, -70.55816650390625, 173.7379913330078, -2.968341827392578, 1.691028118133545, -4.783405303955078, 0.3555394113063812, -1.5130317211151123, 9.686095237731934, 994.8343505859375, -0.07286767661571503, 0.036030542105436325, -0.7625519633293152, 100.0, 8.539035052231888, -3.7618381028453585, android.sensor.pressure
1551581967967, 3.15899658203125, -2.4128265380859375, 13.034927368164062, 0.5837554931640625, 0.0833892822265625, -0.9362640380859375, -328.88641357421875, 33.85009765625, -70.55816650390625, 207.6379852294922, -2.968341827392578, 1.691028118133545, -4.783405303955078, 0.3555394113063812, -1.5130317211151123, 9.686095237731934, 994.8343505859375, -0.07286767661571503, 0.036030542105436325, -0.7625519633293152, 100.0, 8.539035052231888, -3.7618381028453585, android.sensor.light
1551581967977, 3.15899658203125, -2.4128265380859375, 13.034927368164062, -0.1725311279296875, 0.12738037109375, -1.5318603515625, -328.88641357421875, 33.85009765625, -70.55816650390625, 207.6379852294922, -2.968341827392578, 1.691028118133545, -4.783405303955078, 0.3555394113063812, -1.5130317211151123, 9.686095237731934, 994.8343505859375, -0.07286767661571503, 0.036030542105436325, -0.7625519633293152, 100.0, 8.539035052231888, -3.7618381028453585, android.sensor.gyroscope
1551581967982, -0.1344146728515625, -3.5398406982421875, 12.4932861328125, -0.1725311279296875, 0.12738037109375, -1.5318603515625, -328.88641357421875, 33.85009765625, -70.55816650390625, 207.6379852294922, -2.968341827392578, 1.691028118133545, -4.783405303955078, 0.3555394113063812, -1.5130317211151123, 9.686095237731934, 994.8343505859375, -0.07286767661571503, 0.036030542105436325, -0.7625519633293152, 100.0, 8.539035052231888, -3.7618381028453585, android.sensor.accelerometer
1551581967987, -0.1344146728515625, -3.5398406982421875, 12.4932861328125, -0.1725311279296875, 0.12738037109375, -1.5318603515625, -328.88641357421875, 33.85009765625, -70.55816650390625, 207.6379852294922, -2.968341827392578, 1.691028118133545, -4.783405303955078, 0.4663982093334198, -1.526240587234497, 9.679316520690918, 994.8343505859375, -0.07286767661571503, 0.036030542105436325, -0.7625519633293152, 100.0, 8.539035052231888, -3.7618381028453585, android.sensor.gravity
1551581967997, -0.1344146728515625, -3.5398406982421875, 12.4932861328125, -0.1725311279296875, 0.12738037109375, -1.5318603515625, -328.88641357421875, 33.85009765625, -70.55816650390625, 207.6379852294922, 1.6773419380187988, 1.1463340520858765, -0.0023374557495117188, 0.4663982093334198, -1.526240587234497, 9.679316520690918, 994.8343505859375, -0.07286767661571503, 0.036030542105436325, -0.7625519633293152, 100.0, 8.539035052231888, -3.7618381028453585, android.sensor.linear_acceleration
1551581968006, -0.1344146728515625, -3.5398406982421875, 12.4932861328125, -0.1725311279296875, 0.12738037109375, -1.5318603515625, -328.88641357421875, 33.85009765625, -70.55816650390625, 207.6379852294922, 1.6773419380187988, 1.1463340520858765, -0.0023374557495117188, 0.4663982093334198, -1.526240587234497, 9.679316520690918, 994.8343505859375, -0.059860341250896454, 0.02916550263762474, -0.7958889007568359, 106.0, 6.803770425189965, -3.4747891576918177, android.sensor.rotation_vector
1551581968011, -0.1344146728515625, -3.5398406982421875, 12.4932861328125, -0.1725311279296875, 0.12738037109375, -1.5318603515625, -328.88641357421875, 33.85009765625, -70.55816650390625, 207.6379852294922, 1.6773419380187988, 1.1463340520858765, -0.0023374557495117188, 0.4663982093334198, -1.526240587234497, 9.679316520690918, 994.8343505859375, -0.059860341250896454, 0.02916550263762474, -0.7958889007568359, 106.0, 6.803770425189965, -3.4747891576918177, android.sensor.orientation
1551581968062, -0.1344146728515625, -3.5398406982421875, 12.4932861328125, -0.1725311279296875, 0.12738037109375, -1.5318603515625, -339.98565673828125, 20.1690673828125, -80.81817626953125, 207.6379852294922, 1.6773419380187988, 1.1463340520858765, -0.0023374557495117188, 0.4663982093334198, -1.526240587234497, 9.679316520690918, 994.8343505859375, -0.059860341250896454, 0.02916550263762474, -0.7958889007568359, 106.0, 6.803770425189965, -3.4747891576918177, android.sensor.magnetic_field
1551581968063, -0.1344146728515625, -3.5398406982421875, 12.4932861328125, -0.1725311279296875, 0.12738037109375, -1.5318603515625, -339.98565673828125, 20.1690673828125, -80.81817626953125, 207.6379852294922, 1.6773419380187988, 1.1463340520858765, -0.0023374557495117188, 0.4663982093334198, -1.526240587234497, 9.679316520690918, 994.8360595703125, -0.059860341250896454, 0.02916550263762474, -0.7958889007568359, 106.0, 6.803770425189965, -3.4747891576918177, android.sensor.pressure
1551581968083, -0.1344146728515625, -3.5398406982421875, 12.4932861328125, 0.538848876953125, 0.272796630859375, 0.27203369140625, -339.98565673828125, 20.1690673828125, -80.81817626953125, 207.6379852294922, 1.6773419380187988, 1.1463340520858765, -0.0023374557495117188, 0.4663982093334198, -1.526240587234497, 9.679316520690918, 994.8360595703125, -0.059860341250896454, 0.02916550263762474, -0.7958889007568359, 106.0, 6.803770425189965, -3.4747891576918177, android.sensor.gyroscope
1551581968083, -4.2027435302734375, 1.7540740966796875, 2.276641845703125, 0.538848876953125, 0.272796630859375, 0.27203369140625, -339.98565673828125, 20.1690673828125, -80.81817626953125, 207.6379852294922, 1.6773419380187988, 1.1463340520858765, -0.0023374557495117188, 0.4663982093334198, -1.526240587234497, 9.679316520690918, 994.8360595703125, -0.059860341250896454, 0.02916550263762474, -0.7958889007568359, 106.0, 6.803770425189965, -3.4747891576918177, android.sensor.accelerometer
1551581968088, -4.2027435302734375, 1.7540740966796875, 2.276641845703125, 0.538848876953125, 0.272796630859375, 0.27203369140625, -339.98565673828125, 20.1690673828125, -80.81817626953125, 207.6379852294922, 1.6773419380187988, 1.1463340520858765, -0.0023374557495117188, 0.12425723671913147, -1.015229344367981, 9.756534576416016, 994.8360595703125, -0.059860341250896454, 0.02916550263762474, -0.7958889007568359, 106.0, 6.803770425189965, -3.4747891576918177, android.sensor.gravity
1551581968100, -4.2027435302734375, 1.7540740966796875, 2.276641845703125, 0.538848876953125, 0.272796630859375, 0.27203369140625, -339.98565673828125, 20.1690673828125, -80.81817626953125, 207.6379852294922, 4.4135422706604, -2.4944052696228027, 6.930139541625977, 0.12425723671913147, -1.015229344367981, 9.756534576416016, 994.8360595703125, -0.059860341250896454, 0.02916550263762474, -0.7958889007568359, 106.0, 6.803770425189965, -3.4747891576918177, android.sensor.linear_acceleration
1551581968110, -4.2027435302734375, 1.7540740966796875, 2.276641845703125, 0.538848876953125, 0.272796630859375, 0.27203369140625, -339.98565673828125, 20.1690673828125, -80.81817626953125, 207.6379852294922, 4.4135422706604, -2.4944052696228027, 6.930139541625977, 0.12425723671913147, -1.015229344367981, 9.756534576416016, 994.8360595703125, -0.02435963600873947, 0.016783306375145912, -0.7775201201438904, 102.0, 3.2505463632774827, -0.9638756553419647, android.sensor.rotation_vector
1551581968111, -4.2027435302734375, 1.7540740966796875, 2.276641845703125, 0.538848876953125, 0.272796630859375, 0.27203369140625, -339.98565673828125, 20.1690673828125, -80.81817626953125, 207.6379852294922, 4.4135422706604, -2.4944052696228027, 6.930139541625977, 0.12425723671913147, -1.015229344367981, 9.756534576416016, 994.8360595703125, -0.02435963600873947, 0.016783306375145912, -0.7775201201438904, 102.0, 3.2505463632774827, -0.9638756553419647, android.sensor.orientation
1551581968158, -4.2027435302734375, 1.7540740966796875, 2.276641845703125, 0.538848876953125, 0.272796630859375, 0.27203369140625, -328.01666259765625, 6.63909912109375, -90.80810546875, 207.6379852294922, 4.4135422706604, -2.4944052696228027, 6.930139541625977, 0.12425723671913147, -1.015229344367981, 9.756534576416016, 994.8360595703125, -0.02435963600873947, 0.016783306375145912, -0.7775201201438904, 102.0, 3.2505463632774827, -0.9638756553419647, android.sensor.magnetic_field
1551581968160, -4.2027435302734375, 1.7540740966796875, 2.276641845703125, 0.538848876953125, 0.272796630859375, 0.27203369140625, -328.01666259765625, 6.63909912109375, -90.80810546875, 207.6379852294922, 4.4135422706604, -2.4944052696228027, 6.930139541625977, 0.12425723671913147, -1.015229344367981, 9.756534576416016, 994.8360595703125, -0.02435963600873947, 0.016783306375145912, -0.7775201201438904, 102.0, 3.2505463632774827, -0.9638756553419647, android.sensor.pressure
1551581968179, -4.2027435302734375, 1.7540740966796875, 2.276641845703125, 1.1212921142578125, -0.0538330078125, 1.7632293701171875, -328.01666259765625, 6.63909912109375, -90.80810546875, 207.6379852294922, 4.4135422706604, -2.4944052696228027, 6.930139541625977, 0.12425723671913147, -1.015229344367981, 9.756534576416016, 994.8360595703125, -0.02435963600873947, 0.016783306375145912, -0.7775201201438904, 102.0, 3.2505463632774827, -0.9638756553419647, android.sensor.gyroscope
1551581968180, -1.3783416748046875, 0.1439056396484375, 11.936233520507812, 1.1212921142578125, -0.0538330078125, 1.7632293701171875, -328.01666259765625, 6.63909912109375, -90.80810546875, 207.6379852294922, 4.4135422706604, -2.4944052696228027, 6.930139541625977, 0.12425723671913147, -1.015229344367981, 9.756534576416016, 994.8360595703125, -0.02435963600873947, 0.016783306375145912, -0.7775201201438904, 102.0, 3.2505463632774827, -0.9638756553419647, android.sensor.accelerometer
1551581968187, -1.3783416748046875, 0.1439056396484375, 11.936233520507812, 1.1212921142578125, -0.0538330078125, 1.7632293701171875, -328.01666259765625, 6.63909912109375, -90.80810546875, 207.6379852294922, 4.4135422706604, -2.4944052696228027, 6.930139541625977, 0.23486065864562988, 0.05551435053348541, 9.807031631469727, 994.8360595703125, -0.02435963600873947, 0.016783306375145912, -0.7775201201438904, 102.0, 3.2505463632774827, -0.9638756553419647, android.sensor.gravity
1551581968199, -1.3783416748046875, 0.1439056396484375, 11.936233520507812, 1.1212921142578125, -0.0538330078125, 1.7632293701171875, -328.01666259765625, 6.63909912109375, -90.80810546875, 207.6379852294922, 0.674986720085144, 0.21567505598068237, -6.024292945861816, 0.23486065864562988, 0.05551435053348541, 9.807031631469727, 994.8360595703125, -0.02435963600873947, 0.016783306375145912, -0.7775201201438904, 102.0, 3.2505463632774827, -0.9638756553419647, android.sensor.linear_acceleration
1551581968205, -1.3783416748046875, 0.1439056396484375, 11.936233520507812, 1.1212921142578125, -0.0538330078125, 1.7632293701171875, -328.01666259765625, 6.63909912109375, -90.80810546875, 207.6379852294922, 0.674986720085144, 0.21567505598068237, -6.024292945861816, 0.23486065864562988, 0.05551435053348541, 9.807031631469727, 994.8360595703125, -0.008262204937636852, -0.03801519423723221, -0.7245938777923584, 92.0, -2.5058322684941863, -3.689521340573733, android.sensor.rotation_vector
1551581968213, -1.3783416748046875, 0.1439056396484375, 11.936233520507812, 1.1212921142578125, -0.0538330078125, 1.7632293701171875, -328.01666259765625, 6.63909912109375, -90.80810546875, 207.6379852294922, 0.674986720085144, 0.21567505598068237, -6.024292945861816, 0.23486065864562988, 0.05551435053348541, 9.807031631469727, 994.8360595703125, -0.008262204937636852, -0.03801519423723221, -0.7245938777923584, 92.0, -2.5058322684941863, -3.689521340573733, android.sensor.orientation
1551581968258, -1.3783416748046875, 0.1439056396484375, 11.936233520507812, 1.1212921142578125, -0.0538330078125, 1.7632293701171875, -323.06671142578125, -14.60113525390625, -100.048828125, 207.6379852294922, 0.674986720085144, 0.21567505598068237, -6.024292945861816, 0.23486065864562988, 0.05551435053348541, 9.807031631469727, 994.8360595703125, -0.008262204937636852, -0.03801519423723221, -0.7245938777923584, 92.0, -2.5058322684941863, -3.689521340573733, android.sensor.magnetic_field
1551581968259, -1.3783416748046875, 0.1439056396484375, 11.936233520507812, 1.1212921142578125, -0.0538330078125, 1.7632293701171875, -323.06671142578125, -14.60113525390625, -100.048828125, 207.6379852294922, 0.674986720085144, 0.21567505598068237, -6.024292945861816, 0.23486065864562988, 0.05551435053348541, 9.807031631469727, 994.8338012695312, -0.008262204937636852, -0.03801519423723221, -0.7245938777923584, 92.0, -2.5058322684941863, -3.689521340573733, android.sensor.pressure
1551581968273, -1.3783416748046875, 0.1439056396484375, 11.936233520507812, -0.2766876220703125, -0.331573486328125, 0.5371246337890625, -323.06671142578125, -14.60113525390625, -100.048828125, 207.6379852294922, 0.674986720085144, 0.21567505598068237, -6.024292945861816, 0.23486065864562988, 0.05551435053348541, 9.807031631469727, 994.8338012695312, -0.008262204937636852, -0.03801519423723221, -0.7245938777923584, 92.0, -2.5058322684941863, -3.689521340573733, android.sensor.gyroscope
1551581968277, 1.363494873046875, -1.551239013671875, 15.099838256835938, -0.2766876220703125, -0.331573486328125, 0.5371246337890625, -323.06671142578125, -14.60113525390625, -100.048828125, 207.6379852294922, 0.674986720085144, 0.21567505598068237, -6.024292945861816, 0.23486065864562988, 0.05551435053348541, 9.807031631469727, 994.8338012695312, -0.008262204937636852, -0.03801519423723221, -0.7245938777923584, 92.0, -2.5058322684941863, -3.689521340573733, android.sensor.accelerometer
1551581968285, 1.363494873046875, -1.551239013671875, 15.099838256835938, -0.2766876220703125, -0.331573486328125, 0.5371246337890625, -323.06671142578125, -14.60113525390625, -100.048828125, 207.6379852294922, 0.674986720085144, 0.21567505598068237, -6.024292945861816, 0.4426417648792267, -0.23302742838859558, 9.79723834991455, 994.8338012695312, -0.008262204937636852, -0.03801519423723221, -0.7245938777923584, 92.0, -2.5058322684941863, -3.689521340573733, android.sensor.gravity
1551581968297, 1.363494873046875, -1.551239013671875, 15.099838256835938, -0.2766876220703125, -0.331573486328125, 0.5371246337890625, -323.06671142578125, -14.60113525390625, -100.048828125, 207.6379852294922, -0.7301482558250427, 0.9484458565711975, -1.134394645690918, 0.4426417648792267, -0.23302742838859558, 9.79723834991455, 994.8338012695312, -0.008262204937636852, -0.03801519423723221, -0.7245938777923584, 92.0, -2.5058322684941863, -3.689521340573733, android.sensor.linear_acceleration
1551581968303, 1.363494873046875, -1.551239013671875, 15.099838256835938, -0.2766876220703125, -0.331573486328125, 0.5371246337890625, -323.06671142578125, -14.60113525390625, -100.048828125, 207.6379852294922, -0.7301482558250427, 0.9484458565711975, -1.134394645690918, 0.4426417648792267, -0.23302742838859558, 9.79723834991455, 994.8338012695312, -0.020307719707489014, -0.02495562471449375, -0.7164019346237183, 91.0, -0.42684413444348435, -3.662787980162303, android.sensor.rotation_vector
1551581968307, 1.363494873046875, -1.551239013671875, 15.099838256835938, -0.2766876220703125, -0.331573486328125, 0.5371246337890625, -323.06671142578125, -14.60113525390625, -100.048828125, 207.6379852294922, -0.7301482558250427, 0.9484458565711975, -1.134394645690918, 0.4426417648792267, -0.23302742838859558, 9.79723834991455, 994.8338012695312, -0.020307719707489014, -0.02495562471449375, -0.7164019346237183, 91.0, -0.42684413444348435, -3.662787980162303, android.sensor.orientation
1551581968355, 1.363494873046875, -1.551239013671875, 15.099838256835938, -0.2766876220703125, -0.331573486328125, 0.5371246337890625, -326.5167236328125, -22.04132080078125, -99.02801513671875, 207.6379852294922, -0.7301482558250427, 0.9484458565711975, -1.134394645690918, 0.4426417648792267, -0.23302742838859558, 9.79723834991455, 994.8338012695312, -0.020307719707489014, -0.02495562471449375, -0.7164019346237183, 91.0, -0.42684413444348435, -3.662787980162303, android.sensor.magnetic_field
1551581968365, 1.363494873046875, -1.551239013671875, 15.099838256835938, -0.2766876220703125, -0.331573486328125, 0.5371246337890625, -326.5167236328125, -22.04132080078125, -99.02801513671875, 207.6379852294922, -0.7301482558250427, 0.9484458565711975, -1.134394645690918, 0.4426417648792267, -0.23302742838859558, 9.79723834991455, 994.8338012695312, -0.020307719707489014, -0.02495562471449375, -0.7164019346237183, 91.0, -0.42684413444348435, -3.662787980162303, android.sensor.pressure
1551581968374, 1.363494873046875, -1.551239013671875, 15.099838256835938, -0.4276275634765625, -0.1363983154296875, -0.3568267822265625, -326.5167236328125, -22.04132080078125, -99.02801513671875, 207.6379852294922, -0.7301482558250427, 0.9484458565711975, -1.134394645690918, 0.4426417648792267, -0.23302742838859558, 9.79723834991455, 994.8338012695312, -0.020307719707489014, -0.02495562471449375, -0.7164019346237183, 91.0, -0.42684413444348435, -3.662787980162303, android.sensor.gyroscope
1551581968375, 0.051177978515625, 0.2744903564453125, 3.5585174560546875, -0.4276275634765625, -0.1363983154296875, -0.3568267822265625, -326.5167236328125, -22.04132080078125, -99.02801513671875, 207.6379852294922, -0.7301482558250427, 0.9484458565711975, -1.134394645690918, 0.4426417648792267, -0.23302742838859558, 9.79723834991455, 994.8338012695312, -0.020307719707489014, -0.02495562471449375, -0.7164019346237183, 91.0, -0.42684413444348435, -3.662787980162303, android.sensor.accelerometer
1551581968387, 0.051177978515625, 0.2744903564453125, 3.5585174560546875, -0.4276275634765625, -0.1363983154296875, -0.3568267822265625, -326.5167236328125, -22.04132080078125, -99.02801513671875, 207.6379852294922, -0.7301482558250427, 0.9484458565711975, -1.134394645690918, 0.6118702292442322, -0.6462193727493286, 9.769550323486328, 994.8338012695312, -0.020307719707489014, -0.02495562471449375, -0.7164019346237183, 91.0, -0.42684413444348435, -3.662787980162303, android.sensor.gravity
1551581968391, 0.051177978515625, 0.2744903564453125, 3.5585174560546875, -0.4276275634765625, -0.1363983154296875, -0.3568267822265625, -326.5167236328125, -22.04132080078125, -99.02801513671875, 207.6379852294922, 0.18785381317138672, -0.4125269055366516, 4.45767879486084, 0.6118702292442322, -0.6462193727493286, 9.769550323486328, 994.8338012695312, -0.020307719707489014, -0.02495562471449375, -0.7164019346237183, 91.0, -0.42684413444348435, -3.662787980162303, android.sensor.linear_acceleration
1551581968404, 0.051177978515625, 0.2744903564453125, 3.5585174560546875, -0.4276275634765625, -0.1363983154296875, -0.3568267822265625, -326.5167236328125, -22.04132080078125, -99.02801513671875, 207.6379852294922, 0.18785381317138672, -0.4125269055366516, 4.45767879486084, 0.6118702292442322, -0.6462193727493286, 9.769550323486328, 994.8338012695312, -0.04115278646349907, -0.01600252464413643, -0.7292253971099854, 93.0, 1.88326543484599, -4.698828639510272, android.sensor.rotation_vector
1551581968405, 0.051177978515625, 0.2744903564453125, 3.5585174560546875, -0.4276275634765625, -0.1363983154296875, -0.3568267822265625, -326.5167236328125, -22.04132080078125, -99.02801513671875, 207.6379852294922, 0.18785381317138672, -0.4125269055366516, 4.45767879486084, 0.6118702292442322, -0.6462193727493286, 9.769550323486328, 994.8338012695312, -0.04115278646349907, -0.01600252464413643, -0.7292253971099854, 93.0, 1.88326543484599, -4.698828639510272, android.sensor.orientation
1551581968446, 0.051177978515625, 0.2744903564453125, 3.5585174560546875, -0.4276275634765625, -0.1363983154296875, -0.3568267822265625, -329.09698486328125, -29.0008544921875, -100.67901611328125, 207.6379852294922, 0.18785381317138672, -0.4125269055366516, 4.45767879486084, 0.6118702292442322, -0.6462193727493286, 9.769550323486328, 994.8338012695312, -0.04115278646349907, -0.01600252464413643, -0.7292253971099854, 93.0, 1.88326543484599, -4.698828639510272, android.sensor.magnetic_field
1551581968457, 0.051177978515625, 0.2744903564453125, 3.5585174560546875, -0.4276275634765625, -0.1363983154296875, -0.3568267822265625, -329.09698486328125, -29.0008544921875, -100.67901611328125, 207.6379852294922, 0.18785381317138672, -0.4125269055366516, 4.45767879486084, 0.6118702292442322, -0.6462193727493286, 9.769550323486328, 994.8377685546875, -0.04115278646349907, -0.01600252464413643, -0.7292253971099854, 93.0, 1.88326543484599, -4.698828639510272, android.sensor.pressure
1551581968466, 0.051177978515625, 0.2744903564453125, 3.5585174560546875, 0.8387298583984375, -0.1075897216796875, -0.3281402587890625, -329.09698486328125, -29.0008544921875, -100.67901611328125, 207.6379852294922, 0.18785381317138672, -0.4125269055366516, 4.45767879486084, 0.6118702292442322, -0.6462193727493286, 9.769550323486328, 994.8377685546875, -0.04115278646349907, -0.01600252464413643, -0.7292253971099854, 93.0, 1.88326543484599, -4.698828639510272, android.sensor.gyroscope
1551581968470, 3.62945556640625, 0.508819580078125, 11.9415283203125, 0.8387298583984375, -0.1075897216796875, -0.3281402587890625, -329.09698486328125, -29.0008544921875, -100.67901611328125, 207.6379852294922, 0.18785381317138672, -0.4125269055366516, 4.45767879486084, 0.6118702292442322, -0.6462193727493286, 9.769550323486328, 994.8377685546875, -0.04115278646349907, -0.01600252464413643, -0.7292253971099854, 93.0, 1.88326543484599, -4.698828639510272, android.sensor.accelerometer
1551581968475, 3.62945556640625, 0.508819580078125, 11.9415283203125, 0.8387298583984375, -0.1075897216796875, -0.3281402587890625, -329.09698486328125, -29.0008544921875, -100.67901611328125, 207.6379852294922, 0.18785381317138672, -0.4125269055366516, 4.45767879486084, 0.7082310914993286, 0.1340232491493225, 9.783483505249023, 994.8377685546875, -0.04115278646349907, -0.01600252464413643, -0.7292253971099854, 93.0, 1.88326543484599, -4.698828639510272, android.sensor.gravity
1551581968485, 3.62945556640625, 0.508819580078125, 11.9415283203125, 0.8387298583984375, -0.1075897216796875, -0.3281402587890625, -329.09698486328125, -29.0008544921875, -100.67901611328125, 207.6379852294922, -3.4911885261535645, -0.29403743147850037, -3.8104372024536133, 0.7082310914993286, 0.1340232491493225, 9.783483505249023, 994.8377685546875, -0.04115278646349907, -0.01600252464413643, -0.7292253971099854, 93.0, 1.88326543484599, -4.698828639510272, android.sensor.linear_acceleration
1551581968495, 3.62945556640625, 0.508819580078125, 11.9415283203125, 0.8387298583984375, -0.1075897216796875, -0.3281402587890625, -329.09698486328125, -29.0008544921875, -100.67901611328125, 207.6379852294922, -3.4911885261535645, -0.29403743147850037, -3.8104372024536133, 0.7082310914993286, 0.1340232491493225, 9.783483505249023, 994.8377685546875, -0.02190246246755123, -0.030870987102389336, -0.7534423470497131, 97.0, -1.0178804670053747, -4.217624737009949, android.sensor.rotation_vector
1551581968499, 3.62945556640625, 0.508819580078125, 11.9415283203125, 0.8387298583984375, -0.1075897216796875, -0.3281402587890625, -329.09698486328125, -29.0008544921875, -100.67901611328125, 207.6379852294922, -3.4911885261535645, -0.29403743147850037, -3.8104372024536133, 0.7082310914993286, 0.1340232491493225, 9.783483505249023, 994.8377685546875, -0.02190246246755123, -0.030870987102389336, -0.7534423470497131, 97.0, -1.0178804670053747, -4.217624737009949, android.sensor.orientation
1551581968547, 3.62945556640625, 0.508819580078125, 11.9415283203125, 0.8387298583984375, -0.1075897216796875, -0.3281402587890625, -329.547119140625, -46.40045166015625, -100.677490234375, 207.6379852294922, -3.4911885261535645, -0.29403743147850037, -3.8104372024536133, 0.7082310914993286, 0.1340232491493225, 9.783483505249023, 994.8377685546875, -0.02190246246755123, -0.030870987102389336, -0.7534423470497131, 97.0, -1.0178804670053747, -4.217624737009949, android.sensor.magnetic_field
1551581968562, 3.62945556640625, 0.508819580078125, 11.9415283203125, 0.8387298583984375, -0.1075897216796875, -0.3281402587890625, -329.547119140625, -46.40045166015625, -100.677490234375, 207.6379852294922, -3.4911885261535645, -0.29403743147850037, -3.8104372024536133, 0.7082310914993286, 0.1340232491493225, 9.783483505249023, 994.8321533203125, -0.02190246246755123, -0.030870987102389336, -0.7534423470497131, 97.0, -1.0178804670053747, -4.217624737009949, android.sensor.pressure
1551581968569, 3.62945556640625, 0.508819580078125, 11.9415283203125, -0.3944854736328125, 0.2897491455078125, -1.43133544921875, -329.547119140625, -46.40045166015625, -100.677490234375, 207.6379852294922, -3.4911885261535645, -0.29403743147850037, -3.8104372024536133, 0.7082310914993286, 0.1340232491493225, 9.783483505249023, 994.8321533203125, -0.02190246246755123, -0.030870987102389336, -0.7534423470497131, 97.0, -1.0178804670053747, -4.217624737009949, android.sensor.gyroscope
1551581968570, 2.07470703125, -2.0782928466796875, 14.088668823242188, -0.3944854736328125, 0.2897491455078125, -1.43133544921875, -329.547119140625, -46.40045166015625, -100.677490234375, 207.6379852294922, -3.4911885261535645, -0.29403743147850037, -3.8104372024536133, 0.7082310914993286, 0.1340232491493225, 9.783483505249023, 994.8321533203125, -0.02190246246755123, -0.030870987102389336, -0.7534423470497131, 97.0, -1.0178804670053747, -4.217624737009949, android.sensor.accelerometer
1551581968577, 2.07470703125, -2.0782928466796875, 14.088668823242188, -0.3944854736328125, 0.2897491455078125, -1.43133544921875, -329.547119140625, -46.40045166015625, -100.677490234375, 207.6379852294922, -3.4911885261535645, -0.29403743147850037, -3.8104372024536133, 0.42602550983428955, -0.08383041620254517, 9.800387382507324, 994.8321533203125, -0.02190246246755123, -0.030870987102389336, -0.7534423470497131, 97.0, -1.0178804670053747, -4.217624737009949, android.sensor.gravity
1551581968589, 2.07470703125, -2.0782928466796875, 14.088668823242188, -0.3944854736328125, 0.2897491455078125, -1.43133544921875, -329.547119140625, -46.40045166015625, -100.677490234375, 207.6379852294922, -0.5582624673843384, 1.7406398057937622, -1.0895023345947266, 0.42602550983428955, -0.08383041620254517, 9.800387382507324, 994.8321533203125, -0.02190246246755123, -0.030870987102389336, -0.7534423470497131, 97.0, -1.0178804670053747, -4.217624737009949, android.sensor.linear_acceleration
