timestamp, acc_x, acc_y, acc_z, gyro_x, gyro_y, gyro_z, mag_x, mag_y, mag_z, light, la_x, la_y, la_z, gravity_x, gravity_y, gravity_z, pressure, rot_x, rot_y, rot_z, azimuth, pitch, roll, sensor_change
1551582211958, 8.713912963867188, 1.6797637939453125, 6.321136474609375, 0.074310302734375, 3.5941009521484375, 0.1334228515625, -343.37615966796875, -61.1602783203125, 22.772216796875, 46.61299133300781, -1.881944179534912, 4.0457234382629395, -2.0191850662231445, 7.155338764190674, 5.518084526062012, 3.8194241523742676, 995.306396484375, 0.07549416273832321, -0.5308335423469543, -0.38350120186805725, 35.0, -31.378391065942573, -60.14254771763028, android.sensor.light
1551582211970, 0.8366851806640625, 1.3165130615234375, 9.711456298828125, 0.074310302734375, 3.5941009521484375, 0.1334228515625, -343.37615966796875, -61.1602783203125, 22.772216796875, 46.61299133300781, -1.881944179534912, 4.0457234382629395, -2.0191850662231445, 7.155338764190674, 5.518084526062012, 3.8194241523742676, 995.306396484375, 0.07549416273832321, -0.5308335423469543, -0.38350120186805725, 35.0, -31.378391065942573, -60.14254771763028, android.sensor.accelerometer
1551582211972, 0.8366851806640625, 1.3165130615234375, 9.711456298828125, 0.074310302734375, 3.5941009521484375, 0.1334228515625, -343.37615966796875, -61.1602783203125, 22.772216796875, 46.61299133300781, -1.881944179534912, 4.0457234382629395, -2.0191850662231445, 7.155338764190674, 5.518084526062012, 3.8194241523742676, 995.3720092773438, 0.07549416273832321, -0.5308335423469543, -0.38350120186805725, 35.0, -31.378391065942573, -60.14254771763028, android.sensor.pressure
1551582212044, 0.8366851806640625, 1.3165130615234375, 9.711456298828125, 0.074310302734375, 3.5941009521484375, 0.1334228515625, -331.1065673828125, -23.81134033203125, -1.64794921875, 46.61299133300781, -1.881944179534912, 4.0457234382629395, -2.0191850662231445, 7.155338764190674, 5.518084526062012, 3.8194241523742676, 995.3720092773438, 0.07549416273832321, -0.5308335423469543, -0.38350120186805725, 35.0, -31.378391065942573, -60.14254771763028, android.sensor.magnetic_field
1551582212061, 0.8366851806640625, 1.3165130615234375, 9.711456298828125, 0.074310302734375, 3.5941009521484375, 0.1334228515625, -331.1065673828125, -23.81134033203125, -1.64794921875, 44.917999267578125, -1.881944179534912, 4.0457234382629395, -2.0191850662231445, 7.155338764190674, 5.518084526062012, 3.8194241523742676, 995.3720092773438, 0.07549416273832321, -0.5308335423469543, -0.38350120186805725, 35.0, -31.378391065942573, -60.14254771763028, android.sensor.light
1551582212063, 0.8366851806640625, 1.3165130615234375, 9.711456298828125, -0.028839111328125, 0.0328521728515625, -0.08209228515625, -331.1065673828125, -23.81134033203125, -1.64794921875, 44.917999267578125, -1.881944179534912, 4.0457234382629395, -2.0191850662231445, 7.155338764190674, 5.518084526062012, 3.8194241523742676, 995.3720092773438, 0.07549416273832321, -0.5308335423469543, -0.38350120186805725, 35.0, -31.378391065942573, -60.14254771763028, android.sensor.gyroscope
1551582212067, 0.7553253173828125, 1.3499908447265625, 9.763137817382812, -0.028839111328125, 0.0328521728515625, -0.08209228515625, -331.1065673828125, -23.81134033203125, -1.64794921875, 44.917999267578125, -1.881944179534912, 4.0457234382629395, -2.0191850662231445, 7.155338764190674, 5.518084526062012, 3.8194241523742676, 995.3720092773438, 0.07549416273832321, -0.5308335423469543, -0.38350120186805725, 35.0, -31.378391065942573, -60.14254771763028, android.sensor.accelerometer
1551582212072, 0.7553253173828125, 1.3499908447265625, 9.763137817382812, -0.028839111328125, 0.0328521728515625, -0.08209228515625, -331.1065673828125, -23.81134033203125, -1.64794921875, 44.917999267578125, -1.881944179534912, 4.0457234382629395, -2.0191850662231445, 7.155338764190674, 5.518084526062012, 3.8194241523742676, 995.3720092773438, 0.07549416273832321, -0.5308335423469543, -0.38350120186805725, 35.0, -31.378391065942573, -60.14254771763028, android.sensor.pressure
1551582212142, 0.7553253173828125, 1.3499908447265625, 9.763137817382812, -0.028839111328125, 0.0328521728515625, -0.08209228515625, -330.7769775390625, -23.27117919921875, -1.37786865234375, 44.917999267578125, -1.881944179534912, 4.0457234382629395, -2.0191850662231445, 7.155338764190674, 5.518084526062012, 3.8194241523742676, 995.3720092773438, 0.07549416273832321, -0.5308335423469543, -0.38350120186805725, 35.0, -31.378391065942573, -60.14254771763028, android.sensor.magnetic_field
1551582212161, 0.7553253173828125, 1.3499908447265625, 9.763137817382812, -0.063201904296875, 0.0186767578125, -0.073516845703125, -330.7769775390625, -23.27117919921875, -1.37786865234375, 44.917999267578125, -1.881944179534912, 4.0457234382629395, -2.0191850662231445, 7.155338764190674, 5.518084526062012, 3.8194241523742676, 995.3720092773438, 0.07549416273832321, -0.5308335423469543, -0.38350120186805725, 35.0, -31.378391065942573, -60.14254771763028, android.sensor.gyroscope
1551582212165, 0.661468505859375, 1.4394989013671875, 9.466461181640625, -0.063201904296875, 0.0186767578125, -0.073516845703125, -330.7769775390625, -23.27117919921875, -1.37786865234375, 44.917999267578125, -1.881944179534912, 4.0457234382629395, -2.0191850662231445, 7.155338764190674, 5.518084526062012, 3.8194241523742676, 995.3720092773438, 0.07549416273832321, -0.5308335423469543, -0.38350120186805725, 35.0, -31.378391065942573, -60.14254771763028, android.sensor.accelerometer
1551582212172, 0.661468505859375, 1.4394989013671875, 9.466461181640625, -0.063201904296875, 0.0186767578125, -0.073516845703125, -330.7769775390625, -23.27117919921875, -1.37786865234375, 44.917999267578125, -1.881944179534912, 4.0457234382629395, -2.0191850662231445, 7.155338764190674, 5.518084526062012, 3.8194241523742676, 995.3759765625, 0.07549416273832321, -0.5308335423469543, -0.38350120186805725, 35.0, -31.378391065942573, -60.14254771763028, android.sensor.pressure
1551582212238, 0.661468505859375, 1.4394989013671875, 9.466461181640625, -0.063201904296875, 0.0186767578125, -0.073516845703125, -331.28662109375, -23.3001708984375, -1.19781494140625, 44.917999267578125, -1.881944179534912, 4.0457234382629395, -2.0191850662231445, 7.155338764190674, 5.518084526062012, 3.8194241523742676, 995.3759765625, 0.07549416273832321, -0.5308335423469543, -0.38350120186805725, 35.0, -31.378391065942573, -60.14254771763028, android.sensor.magnetic_field
1551582212258, 0.661468505859375, 1.4394989013671875, 9.466461181640625, -0.06884765625, 0.0101470947265625, -0.087127685546875, -331.28662109375, -23.3001708984375, -1.19781494140625, 44.917999267578125, -1.881944179534912, 4.0457234382629395, -2.0191850662231445, 7.155338764190674, 5.518084526062012, 3.8194241523742676, 995.3759765625, 0.07549416273832321, -0.5308335423469543, -0.38350120186805725, 35.0, -31.378391065942573, -60.14254771763028, android.sensor.gyroscope
1551582212263, 0.79022216796875, 1.44281005859375, 9.526077270507812, -0.06884765625, 0.0101470947265625, -0.087127685546875, -331.28662109375, -23.3001708984375, -1.19781494140625, 44.917999267578125, -1.881944179534912, 4.0457234382629395, -2.0191850662231445, 7.155338764190674, 5.518084526062012, 3.8194241523742676, 995.3759765625, 0.07549416273832321, -0.5308335423469543, -0.38350120186805725, 35.0, -31.378391065942573, -60.14254771763028, android.sensor.accelerometer
1551582212272, 0.79022216796875, 1.44281005859375, 9.526077270507812, -0.06884765625, 0.0101470947265625, -0.087127685546875, -331.28662109375, -23.3001708984375, -1.19781494140625, 44.917999267578125, -1.881944179534912, 4.0457234382629395, -2.0191850662231445, 7.155338764190674, 5.518084526062012, 3.8194241523742676, 995.38134765625, 0.07549416273832321, -0.5308335423469543, -0.38350120186805725, 35.0, -31.378391065942573, -60.14254771763028, android.sensor.pressure
1551582212336, 0.79022216796875, 1.44281005859375, 9.526077270507812, -0.06884765625, 0.0101470947265625, -0.087127685546875, -331.37664794921875, -24.14093017578125, -0.71868896484375, 44.917999267578125, -1.881944179534912, 4.0457234382629395, -2.0191850662231445, 7.155338764190674, 5.518084526062012, 3.8194241523742676, 995.38134765625, 0.07549416273832321, -0.5308335423469543, -0.38350120186805725, 35.0, -31.378391065942573, -60.14254771763028, android.sensor.magnetic_field
1551582212356, 0.79022216796875, 1.44281005859375, 9.526077270507812, -0.0151824951171875, 0.0453643798828125, -0.1219482421875, -331.37664794921875, -24.14093017578125, -0.71868896484375, 44.917999267578125, -1.881944179534912, 4.0457234382629395, -2.0191850662231445, 7.155338764190674, 5.518084526062012, 3.8194241523742676, 995.38134765625, 0.07549416273832321, -0.5308335423469543, -0.38350120186805725, 35.0, -31.378391065942573, -60.14254771763028, android.sensor.gyroscope
1551582212360, 0.9713287353515625, 1.8402557373046875, 9.554214477539062, -0.0151824951171875, 0.0453643798828125, -0.1219482421875, -331.37664794921875, -24.14093017578125, -0.71868896484375, 44.917999267578125, -1.881944179534912, 4.0457234382629395, -2.0191850662231445, 7.155338764190674, 5.518084526062012, 3.8194241523742676, 995.38134765625, 0.07549416273832321, -0.5308335423469543, -0.38350120186805725, 35.0, -31.378391065942573, -60.14254771763028, android.sensor.accelerometer
1551582212372, 0.9713287353515625, 1.8402557373046875, 9.554214477539062, -0.0151824951171875, 0.0453643798828125, -0.1219482421875, -331.37664794921875, -24.14093017578125, -0.71868896484375, 44.917999267578125, -1.881944179534912, 4.0457234382629395, -2.0191850662231445, 7.155338764190674, 5.518084526062012, 3.8194241523742676, 995.38134765625, 0.07549416273832321, -0.5308335423469543, -0.38350120186805725, 35.0, -31.378391065942573, -60.14254771763028, android.sensor.pressure
1551582212434, 0.9713287353515625, 1.8402557373046875, 9.554214477539062, -0.0151824951171875, 0.0453643798828125, -0.1219482421875, -331.8572998046875, -23.3612060546875, -1.8585205078125, 44.917999267578125, -1.881944179534912, 4.0457234382629395, -2.0191850662231445, 7.155338764190674, 5.518084526062012, 3.8194241523742676, 995.38134765625, 0.07549416273832321, -0.5308335423469543, -0.38350120186805725, 35.0, -31.378391065942573, -60.14254771763028, android.sensor.magnetic_field
1551582212453, 0.9713287353515625, 1.8402557373046875, 9.554214477539062, -0.1588897705078125, -0.0629119873046875, -0.1749267578125, -331.8572998046875, -23.3612060546875, -1.8585205078125, 44.917999267578125, -1.881944179534912, 4.0457234382629395, -2.0191850662231445, 7.155338764190674, 5.518084526062012, 3.8194241523742676, 995.38134765625, 0.07549416273832321, -0.5308335423469543, -0.38350120186805725, 35.0, -31.378391065942573, -60.14254771763028, android.sensor.gyroscope
1551582212458, 1.017547607421875, 2.1828460693359375, 9.802566528320312, -0.1588897705078125, -0.0629119873046875, -0.1749267578125, -331.8572998046875, -23.3612060546875, -1.8585205078125, 44.917999267578125, -1.881944179534912, 4.0457234382629395, -2.0191850662231445, 7.155338764190674, 5.518084526062012, 3.8194241523742676, 995.38134765625, 0.07549416273832321, -0.5308335423469543, -0.38350120186805725, 35.0, -31.378391065942573, -60.14254771763028, android.sensor.accelerometer
1551582212468, 1.017547607421875, 2.1828460693359375, 9.802566528320312, -0.1588897705078125, -0.0629119873046875, -0.1749267578125, -331.8572998046875, -23.3612060546875, -1.8585205078125, 41.52799987792969, -1.881944179534912, 4.0457234382629395, -2.0191850662231445, 7.155338764190674, 5.518084526062012, 3.8194241523742676, 995.38134765625, 0.07549416273832321, -0.5308335423469543, -0.38350120186805725, 35.0, -31.378391065942573, -60.14254771763028, android.sensor.light
1551582212472, 1.017547607421875, 2.1828460693359375, 9.802566528320312, -0.1588897705078125, -0.0629119873046875, -0.1749267578125, -331.8572998046875, -23.3612060546875, -1.8585205078125, 41.52799987792969, -1.881944179534912, 4.0457234382629395, -2.0191850662231445, 7.155338764190674, 5.518084526062012, 3.8194241523742676, 995.37451171875, 0.07549416273832321, -0.5308335423469543, -0.38350120186805725, 35.0, -31.378391065942573, -60.14254771763028, android.sensor.pressure
1551582212531, 1.017547607421875, 2.1828460693359375, 9.802566528320312, -0.1588897705078125, -0.0629119873046875, -0.1749267578125, -333.2366943359375, -22.5799560546875, -1.318359375, 41.52799987792969, -1.881944179534912, 4.0457234382629395, -2.0191850662231445, 7.155338764190674, 5.518084526062012, 3.8194241523742676, 995.37451171875, 0.07549416273832321, -0.5308335423469543, -0.38350120186805725, 35.0, -31.378391065942573, -60.14254771763028, android.sensor.magnetic_field
1551582212551, 1.017547607421875, 2.1828460693359375, 9.802566528320312, -0.174896240234375, 0.1143951416015625, -0.1865692138671875, -333.2366943359375, -22.5799560546875, -1.318359375, 41.52799987792969, -1.881944179534912, 4.0457234382629395, -2.0191850662231445, 7.155338764190674, 5.518084526062012, 3.8194241523742676, 995.37451171875, 0.07549416273832321, -0.5308335423469543, -0.38350120186805725, 35.0, -31.378391065942573, -60.14254771763028, android.sensor.gyroscope
1551582212556, 1.0232086181640625, 2.1218414306640625, 9.754959106445312, -0.174896240234375, 0.1143951416015625, -0.1865692138671875, -333.2366943359375, -22.5799560546875, -1.318359375, 41.52799987792969, -1.881944179534912, 4.0457234382629395, -2.0191850662231445, 7.155338764190674, 5.518084526062012, 3.8194241523742676, 995.37451171875, 0.07549416273832321, -0.5308335423469543, -0.38350120186805725, 35.0, -31.378391065942573, -60.14254771763028, android.sensor.accelerometer
1551582212572, 1.0232086181640625, 2.1218414306640625, 9.754959106445312, -0.174896240234375, 0.1143951416015625, -0.1865692138671875, -333.2366943359375, -22.5799560546875, -1.318359375, 41.52799987792969, -1.881944179534912, 4.0457234382629395, -2.0191850662231445, 7.155338764190674, 5.518084526062012, 3.8194241523742676, 995.3733520507812, 0.07549416273832321, -0.5308335423469543, -0.38350120186805725, 35.0, -31.378391065942573, -60.14254771763028, android.sensor.pressure
1551582212631, 1.0232086181640625, 2.1218414306640625, 9.754959106445312, -0.174896240234375, 0.1143951416015625, -0.1865692138671875, -333.9569091796875, -22.821044921875, 0.72174072265625, 41.52799987792969, -1.881944179534912, 4.0457234382629395, -2.0191850662231445, 7.155338764190674, 5.518084526062012, 3.8194241523742676, 995.3733520507812, 0.07549416273832321, -0.5308335423469543, -0.38350120186805725, 35.0, -31.378391065942573, -60.14254771763028, android.sensor.magnetic_field
1551582212651, 1.0232086181640625, 2.1218414306640625, 9.754959106445312, -0.0856170654296875, -0.1079559326171875, -0.12322998046875, -333.9569091796875, -22.821044921875, 0.72174072265625, 41.52799987792969, -1.881944179534912, 4.0457234382629395, -2.0191850662231445, 7.155338764190674, 5.518084526062012, 3.8194241523742676, 995.3733520507812, 0.07549416273832321, -0.5308335423469543, -0.38350120186805725, 35.0, -31.378391065942573, -60.14254771763028, android.sensor.gyroscope
1551582212655, 0.8260650634765625, 1.95587158203125, 10.337493896484375, -0.0856170654296875, -0.1079559326171875, -0.12322998046875, -333.9569091796875, -22.821044921875, 0.72174072265625, 41.52799987792969, -1.881944179534912, 4.0457234382629395, -2.0191850662231445, 7.155338764190674, 5.518084526062012, 3.8194241523742676, 995.3733520507812, 0.07549416273832321, -0.5308335423469543, -0.38350120186805725, 35.0, -31.378391065942573, -60.14254771763028, android.sensor.accelerometer
1551582212655, 0.8260650634765625, 1.95587158203125, 10.337493896484375, -0.0856170654296875, -0.1079559326171875, -0.12322998046875, -333.9569091796875, -22.821044921875, 0.72174072265625, 41.52799987792969, -1.881944179534912, 4.0457234382629395, -2.0191850662231445, 0.8916863799095154, 1.6684460639953613, 9.625865936279297, 995.3733520507812, 0.07549416273832321, -0.5308335423469543, -0.38350120186805725, 35.0, -31.378391065942573, -60.14254771763028, android.sensor.gravity
1551582212670, 0.8260650634765625, 1.95587158203125, 10.337493896484375, -0.0856170654296875, -0.1079559326171875, -0.12322998046875, -333.9569091796875, -22.821044921875, 0.72174072265625, 41.52799987792969, -0.11029303073883057, -0.11669588088989258, -1.376255989074707, 0.8916863799095154, 1.6684460639953613, 9.625865936279297, 995.3733520507812, 0.07549416273832321, -0.5308335423469543, -0.38350120186805725, 35.0, -31.378391065942573, -60.14254771763028, android.sensor.linear_acceleration
1551582212673, 0.8260650634765625, 1.95587158203125, 10.337493896484375, -0.0856170654296875, -0.1079559326171875, -0.12322998046875, -333.9569091796875, -22.821044921875, 0.72174072265625, 41.52799987792969, -0.11029303073883057, -0.11669588088989258, -1.376255989074707, 0.8916863799095154, 1.6684460639953613, 9.625865936279297, 995.3733520507812, 0.07549416273832321, -0.5308335423469543, -0.38350120186805725, 35.0, -31.378391065942573, -60.14254771763028, android.sensor.pressure
1551582212674, 0.8260650634765625, 1.95587158203125, 10.337493896484375, -0.0856170654296875, -0.1079559326171875, -0.12322998046875, -333.9569091796875, -22.821044921875, 0.72174072265625, 41.52799987792969, -0.11029303073883057, -0.11669588088989258, -1.376255989074707, 0.8916863799095154, 1.6684460639953613, 9.625865936279297, 995.3733520507812, 0.025235803797841072, -0.0932137742638588, -0.7249963879585266, 93.0, -9.763305479821653, -5.271367539139298, android.sensor.rotation_vector
1551582212679, 0.8260650634765625, 1.95587158203125, 10.337493896484375, -0.0856170654296875, -0.1079559326171875, -0.12322998046875, -333.9569091796875, -22.821044921875, 0.72174072265625, 41.52799987792969, -0.11029303073883057, -0.11669588088989258, -1.376255989074707, 0.8916863799095154, 1.6684460639953613, 9.625865936279297, 995.3733520507812, 0.025235803797841072, -0.0932137742638588, -0.7249963879585266, 93.0, -9.763305479821653, -5.271367539139298, android.sensor.orientation
1551582212729, 0.8260650634765625, 1.95587158203125, 10.337493896484375, -0.0856170654296875, -0.1079559326171875, -0.12322998046875, -334.6160888671875, -22.52044677734375, 0.2716064453125, 41.52799987792969, -0.11029303073883057, -0.11669588088989258, -1.376255989074707, 0.8916863799095154, 1.6684460639953613, 9.625865936279297, 995.3733520507812, 0.025235803797841072, -0.0932137742638588, -0.7249963879585266, 93.0, -9.763305479821653, -5.271367539139298, android.sensor.magnetic_field
1551582212749, 0.8260650634765625, 1.95587158203125, 10.337493896484375, 0.1893310546875, 0.01226806640625, -0.0067596435546875, -334.6160888671875, -22.52044677734375, 0.2716064453125, 41.52799987792969, -0.11029303073883057, -0.11669588088989258, -1.376255989074707, 0.8916863799095154, 1.6684460639953613, 9.625865936279297, 995.3733520507812, 0.025235803797841072, -0.0932137742638588, -0.7249963879585266, 93.0, -9.763305479821653, -5.271367539139298, android.sensor.gyroscope
1551582212752, 0.8687591552734375, 1.3188934326171875, 11.48883056640625, 0.1893310546875, 0.01226806640625, -0.0067596435546875, -334.6160888671875, -22.52044677734375, 0.2716064453125, 41.52799987792969, -0.11029303073883057, -0.11669588088989258, -1.376255989074707, 0.8916863799095154, 1.6684460639953613, 9.625865936279297, 995.3733520507812, 0.025235803797841072, -0.0932137742638588, -0.7249963879585266, 93.0, -9.763305479821653, -5.271367539139298, android.sensor.accelerometer
1551582212752, 0.8687591552734375, 1.3188934326171875, 11.48883056640625, 0.1893310546875, 0.01226806640625, -0.0067596435546875, -334.6160888671875, -22.52044677734375, 0.2716064453125, 41.52799987792969, -0.11029303073883057, -0.11669588088989258, -1.376255989074707, 0.879314124584198, 1.8467026948928833, 9.594405174255371, 995.3733520507812, 0.025235803797841072, -0.0932137742638588, -0.7249963879585266, 93.0, -9.763305479821653, -5.271367539139298, android.sensor.gravity
1551582212766, 0.8687591552734375, 1.3188934326171875, 11.48883056640625, 0.1893310546875, 0.01226806640625, -0.0067596435546875, -334.6160888671875, -22.52044677734375, 0.2716064453125, 41.52799987792969, 0.0012574195861816406, 0.5542712211608887, -1.9270868301391602, 0.879314124584198, 1.8467026948928833, 9.594405174255371, 995.3733520507812, 0.025235803797841072, -0.0932137742638588, -0.7249963879585266, 93.0, -9.763305479821653, -5.271367539139298, android.sensor.linear_acceleration
1551582212771, 0.8687591552734375, 1.3188934326171875, 11.48883056640625, 0.1893310546875, 0.01226806640625, -0.0067596435546875, -334.6160888671875, -22.52044677734375, 0.2716064453125, 41.52799987792969, 0.0012574195861816406, 0.5542712211608887, -1.9270868301391602, 0.879314124584198, 1.8467026948928833, 9.594405174255371, 995.3733520507812, 0.029941050335764885, -0.09921856224536896, -0.7237978577613831, 92.0, -10.63075828743349, -5.372779626614709, android.sensor.rotation_vector
1551582212772, 0.8687591552734375, 1.3188934326171875, 11.48883056640625, 0.1893310546875, 0.01226806640625, -0.0067596435546875, -334.6160888671875, -22.52044677734375, 0.2716064453125, 41.52799987792969, 0.0012574195861816406, 0.5542712211608887, -1.9270868301391602, 0.879314124584198, 1.8467026948928833, 9.594405174255371, 995.382080078125, 0.029941050335764885, -0.09921856224536896, -0.7237978577613831, 92.0, -10.63075828743349, -5.372779626614709, android.sensor.pressure
1551582212776, 0.8687591552734375, 1.3188934326171875, 11.48883056640625, 0.1893310546875, 0.01226806640625, -0.0067596435546875, -334.6160888671875, -22.52044677734375, 0.2716064453125, 41.52799987792969, 0.0012574195861816406, 0.5542712211608887, -1.9270868301391602, 0.879314124584198, 1.8467026948928833, 9.594405174255371, 995.382080078125, 0.029941050335764885, -0.09921856224536896, -0.7237978577613831, 92.0, -10.63075828743349, -5.372779626614709, android.sensor.orientation
1551582212825, 0.8687591552734375, 1.3188934326171875, 11.48883056640625, 0.1893310546875, 0.01226806640625, -0.0067596435546875, -334.73663330078125, -21.47064208984375, 1.08184814453125, 41.52799987792969, 0.0012574195861816406, 0.5542712211608887, -1.9270868301391602, 0.879314124584198, 1.8467026948928833, 9.594405174255371, 995.382080078125, 0.029941050335764885, -0.09921856224536896, -0.7237978577613831, 92.0, -10.63075828743349, -5.372779626614709, android.sensor.magnetic_field
1551582212845, 0.8687591552734375, 1.3188934326171875, 11.48883056640625, -0.2073822021484375, 0.175872802734375, 0.0744781494140625, -334.73663330078125, -21.47064208984375, 1.08184814453125, 41.52799987792969, 0.0012574195861816406, 0.5542712211608887, -1.9270868301391602, 0.879314124584198, 1.8467026948928833, 9.594405174255371, 995.382080078125, 0.029941050335764885, -0.09921856224536896, -0.7237978577613831, 92.0, -10.63075828743349, -5.372779626614709, android.sensor.gyroscope
1551582212849, 0.4298858642578125, 0.6408233642578125, 11.537872314453125, -0.2073822021484375, 0.175872802734375, 0.0744781494140625, -334.73663330078125, -21.47064208984375, 1.08184814453125, 41.52799987792969, 0.0012574195861816406, 0.5542712211608887, -1.9270868301391602, 0.879314124584198, 1.8467026948928833, 9.594405174255371, 995.382080078125, 0.029941050335764885, -0.09921856224536896, -0.7237978577613831, 92.0, -10.63075828743349, -5.372779626614709, android.sensor.accelerometer
1551582212849, 0.4298858642578125, 0.6408233642578125, 11.537872314453125, -0.2073822021484375, 0.175872802734375, 0.0744781494140625, -334.73663330078125, -21.47064208984375, 1.08184814453125, 41.52799987792969, 0.0012574195861816406, 0.5542712211608887, -1.9270868301391602, 0.7265845537185669, 1.6460161209106445, 9.64358901977539, 995.382080078125, 0.029941050335764885, -0.09921856224536896, -0.7237978577613831, 92.0, -10.63075828743349, -5.372779626614709, android.sensor.gravity
1551582212865, 0.4298858642578125, 0.6408233642578125, 11.537872314453125, -0.2073822021484375, 0.175872802734375, 0.0744781494140625, -334.73663330078125, -21.47064208984375, 1.08184814453125, 41.52799987792969, 0.36282438039779663, 1.1566178798675537, -1.9379606246948242, 0.7265845537185669, 1.6460161209106445, 9.64358901977539, 995.382080078125, 0.029941050335764885, -0.09921856224536896, -0.7237978577613831, 92.0, -10.63075828743349, -5.372779626614709, android.sensor.linear_acceleration
1551582212871, 0.4298858642578125, 0.6408233642578125, 11.537872314453125, -0.2073822021484375, 0.175872802734375, 0.0744781494140625, -334.73663330078125, -21.47064208984375, 1.08184814453125, 41.52799987792969, 0.36282438039779663, 1.1566178798675537, -1.9379606246948242, 0.7265845537185669, 1.6460161209106445, 9.64358901977539, 995.382080078125, 0.02724759466946125, -0.0835760310292244, -0.7213293313980103, 92.0, -9.091372813616955, -4.38648280810512, android.sensor.rotation_vector
1551582212874, 0.4298858642578125, 0.6408233642578125, 11.537872314453125, -0.2073822021484375, 0.175872802734375, 0.0744781494140625, -334.73663330078125, -21.47064208984375, 1.08184814453125, 41.52799987792969, 0.36282438039779663, 1.1566178798675537, -1.9379606246948242, 0.7265845537185669, 1.6460161209106445, 9.64358901977539, 995.382080078125, 0.02724759466946125, -0.0835760310292244, -0.7213293313980103, 92.0, -9.091372813616955, -4.38648280810512, android.sensor.pressure
1551582212875, 0.4298858642578125, 0.6408233642578125, 11.537872314453125, -0.2073822021484375, 0.175872802734375, 0.0744781494140625, -334.73663330078125, -21.47064208984375, 1.08184814453125, 41.52799987792969, 0.36282438039779663, 1.1566178798675537, -1.9379606246948242, 0.7265845537185669, 1.6460161209106445, 9.64358901977539, 995.382080078125, 0.02724759466946125, -0.0835760310292244, -0.7213293313980103, 92.0, -9.091372813616955, -4.38648280810512, android.sensor.orientation
1551582212926, 0.4298858642578125, 0.6408233642578125, 11.537872314453125, -0.2073822021484375, 0.175872802734375, 0.0744781494140625, -333.98590087890625, -20.17974853515625, 0.78125, 41.52799987792969, 0.36282438039779663, 1.1566178798675537, -1.9379606246948242, 0.7265845537185669, 1.6460161209106445, 9.64358901977539, 995.382080078125, 0.02724759466946125, -0.0835760310292244, -0.7213293313980103, 92.0, -9.091372813616955, -4.38648280810512, android.sensor.magnetic_field
1551582212944, 0.4298858642578125, 0.6408233642578125, 11.537872314453125, -0.071441650390625, -0.0048980712890625, 0.361541748046875, -333.98590087890625, -20.17974853515625, 0.78125, 41.52799987792969, 0.36282438039779663, 1.1566178798675537, -1.9379606246948242, 0.7265845537185669, 1.6460161209106445, 9.64358901977539, 995.382080078125, 0.02724759466946125, -0.0835760310292244, -0.7213293313980103, 92.0, -9.091372813616955, -4.38648280810512, android.sensor.gyroscope
1551582212948, 0.4298858642578125, 0.6408233642578125, 11.537872314453125, -0.071441650390625, -0.0048980712890625, 0.361541748046875, -333.98590087890625, -20.17974853515625, 0.78125, 41.52799987792969, 0.36282438039779663, 1.1566178798675537, -1.9379606246948242, 0.7850103974342346, 1.5517135858535767, 9.654638290405273, 995.382080078125, 0.02724759466946125, -0.0835760310292244, -0.7213293313980103, 92.0, -9.091372813616955, -4.38648280810512, android.sensor.gravity
1551582212949, -0.1891326904296875, -0.023468017578125, 10.27593994140625, -0.071441650390625, -0.0048980712890625, 0.361541748046875, -333.98590087890625, -20.17974853515625, 0.78125, 41.52799987792969, 0.36282438039779663, 1.1566178798675537, -1.9379606246948242, 0.7850103974342346, 1.5517135858535767, 9.654638290405273, 995.382080078125, 0.02724759466946125, -0.0835760310292244, -0.7213293313980103, 92.0, -9.091372813616955, -4.38648280810512, android.sensor.accelerometer
1551582212965, -0.1891326904296875, -0.023468017578125, 10.27593994140625, -0.071441650390625, -0.0048980712890625, 0.361541748046875, -333.98590087890625, -20.17974853515625, 0.78125, 41.52799987792969, 0.9404586553573608, 1.4850069284439087, -0.4012155532836914, 0.7850103974342346, 1.5517135858535767, 9.654638290405273, 995.382080078125, 0.02724759466946125, -0.0835760310292244, -0.7213293313980103, 92.0, -9.091372813616955, -4.38648280810512, android.sensor.linear_acceleration
1551582212967, -0.1891326904296875, -0.023468017578125, 10.27593994140625, -0.071441650390625, -0.0048980712890625, 0.361541748046875, -333.98590087890625, -20.17974853515625, 0.78125, 41.52799987792969, 0.9404586553573608, 1.4850069284439087, -0.4012155532836914, 0.7850103974342346, 1.5517135858535767, 9.654638290405273, 995.382080078125, 0.026120459660887718, -0.08480532467365265, -0.706997811794281, 90.0, -9.007744831192966, -4.766425314178596, android.sensor.rotation_vector
1551582212974, -0.1891326904296875, -0.023468017578125, 10.27593994140625, -0.071441650390625, -0.0048980712890625, 0.361541748046875, -333.98590087890625, -20.17974853515625, 0.78125, 41.52799987792969, 0.9404586553573608, 1.4850069284439087, -0.4012155532836914, 0.7850103974342346, 1.5517135858535767, 9.654638290405273, 995.382080078125, 0.026120459660887718, -0.08480532467365265, -0.706997811794281, 90.0, -9.007744831192966, -4.766425314178596, android.sensor.orientation
1551582212974, -0.1891326904296875, -0.023468017578125, 10.27593994140625, -0.071441650390625, -0.0048980712890625, 0.361541748046875, -333.98590087890625, -20.17974853515625, 0.78125, 41.52799987792969, 0.9404586553573608, 1.4850069284439087, -0.4012155532836914, 0.7850103974342346, 1.5517135858535767, 9.654638290405273, 995.3795776367188, 0.026120459660887718, -0.08480532467365265, -0.706997811794281, 90.0, -9.007744831192966, -4.766425314178596, android.sensor.pressure
1551582213023, -0.1891326904296875, -0.023468017578125, 10.27593994140625, -0.071441650390625, -0.0048980712890625, 0.361541748046875, -333.2061767578125, -19.25048828125, 1.41143798828125, 41.52799987792969, 0.9404586553573608, 1.4850069284439087, -0.4012155532836914, 0.7850103974342346, 1.5517135858535767, 9.654638290405273, 995.3795776367188, 0.026120459660887718, -0.08480532467365265, -0.706997811794281, 90.0, -9.007744831192966, -4.766425314178596, android.sensor.magnetic_field
1551582213041, -0.1891326904296875, -0.023468017578125, 10.27593994140625, -0.075775146484375, -5.645751953125E-4, 0.3437347412109375, -333.2061767578125, -19.25048828125, 1.41143798828125, 41.52799987792969, 0.9404586553573608, 1.4850069284439087, -0.4012155532836914, 0.7850103974342346, 1.5517135858535767, 9.654638290405273, 995.3795776367188, 0.026120459660887718, -0.08480532467365265, -0.706997811794281, 90.0, -9.007744831192966, -4.766425314178596, android.sensor.gyroscope
1551582213045, -0.0969085693359375, 0.655792236328125, 9.183746337890625, -0.075775146484375, -5.645751953125E-4, 0.3437347412109375, -333.2061767578125, -19.25048828125, 1.41143798828125, 41.52799987792969, 0.9404586553573608, 1.4850069284439087, -0.4012155532836914, 0.7850103974342346, 1.5517135858535767, 9.654638290405273, 995.3795776367188, 0.026120459660887718, -0.08480532467365265, -0.706997811794281, 90.0, -9.007744831192966, -4.766425314178596, android.sensor.accelerometer
1551582213046, -0.0969085693359375, 0.655792236328125, 9.183746337890625, -0.075775146484375, -5.645751953125E-4, 0.3437347412109375, -333.2061767578125, -19.25048828125, 1.41143798828125, 41.52799987792969, 0.9404586553573608, 1.4850069284439087, -0.4012155532836914, 0.8356788158416748, 1.4530017375946045, 9.665740013122559, 995.3795776367188, 0.026120459660887718, -0.08480532467365265, -0.706997811794281, 90.0, -9.007744831192966, -4.766425314178596, android.sensor.gravity
1551582213060, -0.0969085693359375, 0.655792236328125, 9.183746337890625, -0.075775146484375, -5.645751953125E-4, 0.3437347412109375, -333.2061767578125, -19.25048828125, 1.41143798828125, 41.52799987792969, 0.8058340549468994, 0.870665431022644, 0.4168405532836914, 0.8356788158416748, 1.4530017375946045, 9.665740013122559, 995.3795776367188, 0.026120459660887718, -0.08480532467365265, -0.706997811794281, 90.0, -9.007744831192966, -4.766425314178596, android.sensor.linear_acceleration
1551582213066, -0.0969085693359375, 0.655792236328125, 9.183746337890625, -0.075775146484375, -5.645751953125E-4, 0.3437347412109375, -333.2061767578125, -19.25048828125, 1.41143798828125, 41.52799987792969, 0.8058340549468994, 0.870665431022644, 0.4168405532836914, 0.8356788158416748, 1.4530017375946045, 9.665740013122559, 995.3795776367188, 0.02405156008899212, -0.08298604935407639, -0.6970972418785095, 88.0, -8.623227379036049, -4.908551305522806, android.sensor.rotation_vector
1551582213070, -0.0969085693359375, 0.655792236328125, 9.183746337890625, -0.075775146484375, -5.645751953125E-4, 0.3437347412109375, -333.2061767578125, -19.25048828125, 1.41143798828125, 41.52799987792969, 0.8058340549468994, 0.870665431022644, 0.4168405532836914, 0.8356788158416748, 1.4530017375946045, 9.665740013122559, 995.3795776367188, 0.02405156008899212, -0.08298604935407639, -0.6970972418785095, 88.0, -8.623227379036049, -4.908551305522806, android.sensor.orientation
1551582213074, -0.0969085693359375, 0.655792236328125, 9.183746337890625, -0.075775146484375, -5.645751953125E-4, 0.3437347412109375, -333.2061767578125, -19.25048828125, 1.41143798828125, 41.52799987792969, 0.8058340549468994, 0.870665431022644, 0.4168405532836914, 0.8356788158416748, 1.4530017375946045, 9.665740013122559, 995.369873046875, 0.02405156008899212, -0.08298604935407639, -0.6970972418785095, 88.0, -8.623227379036049, -4.908551305522806, android.sensor.pressure
1551582213120, -0.0969085693359375, 0.655792236328125, 9.183746337890625, -0.075775146484375, -5.645751953125E-4, 0.3437347412109375, -332.75604248046875, -18.14117431640625, 1.8310546875, 41.52799987792969, 0.8058340549468994, 0.870665431022644, 0.4168405532836914, 0.8356788158416748, 1.4530017375946045, 9.665740013122559, 995.369873046875, 0.02405156008899212, -0.08298604935407639, -0.6970972418785095, 88.0, -8.623227379036049, -4.908551305522806, android.sensor.magnetic_field
1551582213139, -0.0969085693359375, 0.655792236328125, 9.183746337890625, 0.2320556640625, 0.211822509765625, 0.184967041015625, -332.75604248046875, -18.14117431640625, 1.8310546875, 41.52799987792969, 0.8058340549468994, 0.870665431022644, 0.4168405532836914, 0.8356788158416748, 1.4530017375946045, 9.665740013122559, 995.369873046875, 0.02405156008899212, -0.08298604935407639, -0.6970972418785095, 88.0, -8.623227379036049, -4.908551305522806, android.sensor.gyroscope
1551582213143, -0.0969085693359375, 0.655792236328125, 9.183746337890625, 0.2320556640625, 0.211822509765625, 0.184967041015625, -332.75604248046875, -18.14117431640625, 1.8310546875, 41.52799987792969, 0.8058340549468994, 0.870665431022644, 0.4168405532836914, 0.6641769409179688, 1.6578861474990845, 9.646056175231934, 995.369873046875, 0.02405156008899212, -0.08298604935407639, -0.6970972418785095, 88.0, -8.623227379036049, -4.908551305522806, android.sensor.gravity
1551582213143, 0.0474090576171875, 0.498138427734375, 8.21630859375, 0.2320556640625, 0.211822509765625, 0.184967041015625, -332.75604248046875, -18.14117431640625, 1.8310546875, 41.52799987792969, 0.8058340549468994, 0.870665431022644, 0.4168405532836914, 0.6641769409179688, 1.6578861474990845, 9.646056175231934, 995.369873046875, 0.02405156008899212, -0.08298604935407639, -0.6970972418785095, 88.0, -8.623227379036049, -4.908551305522806, android.sensor.accelerometer
1551582213159, 0.0474090576171875, 0.498138427734375, 8.21630859375, 0.2320556640625, 0.211822509765625, 0.184967041015625, -332.75604248046875, -18.14117431640625, 1.8310546875, 41.52799987792969, 0.527995765209198, 1.2102640867233276, 1.3682966232299805, 0.6641769409179688, 1.6578861474990845, 9.646056175231934, 995.369873046875, 0.02405156008899212, -0.08298604935407639, -0.6970972418785095, 88.0, -8.623227379036049, -4.908551305522806, android.sensor.linear_acceleration
1551582213163, 0.0474090576171875, 0.498138427734375, 8.21630859375, 0.2320556640625, 0.211822509765625, 0.184967041015625, -332.75604248046875, -18.14117431640625, 1.8310546875, 41.52799987792969, 0.527995765209198, 1.2102640867233276, 1.3682966232299805, 0.6641769409179688, 1.6578861474990845, 9.646056175231934, 995.369873046875, 0.03968951478600502, -0.08208522200584412, -0.6887710094451904, 87.0, -9.797532411526234, -3.688931382984173, android.sensor.rotation_vector
1551582213168, 0.0474090576171875, 0.498138427734375, 8.21630859375, 0.2320556640625, 0.211822509765625, 0.184967041015625, -332.75604248046875, -18.14117431640625, 1.8310546875, 41.52799987792969, 0.527995765209198, 1.2102640867233276, 1.3682966232299805, 0.6641769409179688, 1.6578861474990845, 9.646056175231934, 995.369873046875, 0.03968951478600502, -0.08208522200584412, -0.6887710094451904, 87.0, -9.797532411526234, -3.688931382984173, android.sensor.orientation
1551582213173, 0.0474090576171875, 0.498138427734375, 8.21630859375, 0.2320556640625, 0.211822509765625, 0.184967041015625, -332.75604248046875, -18.14117431640625, 1.8310546875, 41.52799987792969, 0.527995765209198, 1.2102640867233276, 1.3682966232299805, 0.6641769409179688, 1.6578861474990845, 9.646056175231934, 995.369873046875, 0.03968951478600502, -0.08208522200584412, -0.6887710094451904, 87.0, -9.797532411526234, -3.688931382984173, android.sensor.pressure
1551582213177, 0.0474090576171875, 0.498138427734375, 8.21630859375, 0.2320556640625, 0.211822509765625, 0.184967041015625, -332.75604248046875, -18.14117431640625, 1.8310546875, 33.05299377441406, 0.527995765209198, 1.2102640867233276, 1.3682966232299805, 0.6641769409179688, 1.6578861474990845, 9.646056175231934, 995.369873046875, 0.03968951478600502, -0.08208522200584412, -0.6887710094451904, 87.0, -9.797532411526234, -3.688931382984173, android.sensor.light
1551582213218, 0.0474090576171875, 0.498138427734375, 8.21630859375, 0.2320556640625, 0.211822509765625, 0.184967041015625, -333.056640625, -17.449951171875, 0.9613037109375, 33.05299377441406, 0.527995765209198, 1.2102640867233276, 1.3682966232299805, 0.6641769409179688, 1.6578861474990845, 9.646056175231934, 995.369873046875, 0.03968951478600502, -0.08208522200584412, -0.6887710094451904, 87.0, -9.797532411526234, -3.688931382984173, android.sensor.magnetic_field
1551582213247, 0.0474090576171875, 0.498138427734375, 8.21630859375, 0.1342315673828125, 0.09130859375, 0.069122314453125, -333.056640625, -17.449951171875, 0.9613037109375, 33.05299377441406, 0.527995765209198, 1.2102640867233276, 1.3682966232299805, 0.6641769409179688, 1.6578861474990845, 9.646056175231934, 995.369873046875, 0.03968951478600502, -0.08208522200584412, -0.6887710094451904, 87.0, -9.797532411526234, -3.688931382984173, android.sensor.gyroscope
1551582213247, 0.346649169921875, 0.3770599365234375, 10.2088623046875, 0.1342315673828125, 0.09130859375, 0.069122314453125, -333.056640625, -17.449951171875, 0.9613037109375, 33.05299377441406, 0.527995765209198, 1.2102640867233276, 1.3682966232299805, 0.6641769409179688, 1.6578861474990845, 9.646056175231934, 995.369873046875, 0.03968951478600502, -0.08208522200584412, -0.6887710094451904, 87.0, -9.797532411526234, -3.688931382984173, android.sensor.accelerometer
1551582213247, 0.346649169921875, 0.3770599365234375, 10.2088623046875, 0.1342315673828125, 0.09130859375, 0.069122314453125, -333.056640625, -17.449951171875, 0.9613037109375, 33.05299377441406, 0.527995765209198, 1.2102640867233276, 1.3682966232299805, 0.5891263484954834, 1.7796238660812378, 9.62922477722168, 995.369873046875, 0.03968951478600502, -0.08208522200584412, -0.6887710094451904, 87.0, -9.797532411526234, -3.688931382984173, android.sensor.gravity
1551582213259, 0.346649169921875, 0.3770599365234375, 10.2088623046875, 0.1342315673828125, 0.09130859375, 0.069122314453125, -333.056640625, -17.449951171875, 0.9613037109375, 33.05299377441406, 0.022489309310913086, 1.544933557510376, -1.2996511459350586, 0.5891263484954834, 1.7796238660812378, 9.62922477722168, 995.369873046875, 0.03968951478600502, -0.08208522200584412, -0.6887710094451904, 87.0, -9.797532411526234, -3.688931382984173, android.sensor.linear_acceleration
1551582213259, 0.346649169921875, 0.3770599365234375, 10.2088623046875, 0.1342315673828125, 0.09130859375, 0.069122314453125, -333.056640625, -17.449951171875, 0.9613037109375, 33.05299377441406, 0.022489309310913086, 1.544933557510376, -1.2996511459350586, 0.5891263484954834, 1.7796238660812378, 9.62922477722168, 995.369873046875, 0.044546063989400864, -0.08079225569963455, -0.6895532011985779, 87.0, -10.103047626874549, -3.1814688182197357, android.sensor.rotation_vector
1551582213264, 0.346649169921875, 0.3770599365234375, 10.2088623046875, 0.1342315673828125, 0.09130859375, 0.069122314453125, -333.056640625, -17.449951171875, 0.9613037109375, 33.05299377441406, 0.022489309310913086, 1.544933557510376, -1.2996511459350586, 0.5891263484954834, 1.7796238660812378, 9.62922477722168, 995.369873046875, 0.044546063989400864, -0.08079225569963455, -0.6895532011985779, 87.0, -10.103047626874549, -3.1814688182197357, android.sensor.orientation
1551582213272, 0.346649169921875, 0.3770599365234375, 10.2088623046875, 0.1342315673828125, 0.09130859375, 0.069122314453125, -333.056640625, -17.449951171875, 0.9613037109375, 33.05299377441406, 0.022489309310913086, 1.544933557510376, -1.2996511459350586, 0.5891263484954834, 1.7796238660812378, 9.62922477722168, 995.3639526367188, 0.044546063989400864, -0.08079225569963455, -0.6895532011985779, 87.0, -10.103047626874549, -3.1814688182197357, android.sensor.pressure
1551582213312, 0.346649169921875, 0.3770599365234375, 10.2088623046875, 0.1342315673828125, 0.09130859375, 0.069122314453125, -333.32672119140625, -16.461181640625, 2.46124267578125, 33.05299377441406, 0.022489309310913086, 1.544933557510376, -1.2996511459350586, 0.5891263484954834, 1.7796238660812378, 9.62922477722168, 995.3639526367188, 0.044546063989400864, -0.08079225569963455, -0.6895532011985779, 87.0, -10.103047626874549, -3.1814688182197357, android.sensor.magnetic_field
1551582213332, 0.346649169921875, 0.3770599365234375, 10.2088623046875, -0.1974334716796875, -0.0402984619140625, -0.1959686279296875, -333.32672119140625, -16.461181640625, 2.46124267578125, 33.05299377441406, 0.022489309310913086, 1.544933557510376, -1.2996511459350586, 0.5891263484954834, 1.7796238660812378, 9.62922477722168, 995.3639526367188, 0.044546063989400864, -0.08079225569963455, -0.6895532011985779, 87.0, -10.103047626874549, -3.1814688182197357, android.sensor.gyroscope
1551582213337, 0.5279998779296875, -0.88671875, 12.281219482421875, -0.1974334716796875, -0.0402984619140625, -0.1959686279296875, -333.32672119140625, -16.461181640625, 2.46124267578125, 33.05299377441406, 0.022489309310913086, 1.544933557510376, -1.2996511459350586, 0.5891263484954834, 1.7796238660812378, 9.62922477722168, 995.3639526367188, 0.044546063989400864, -0.08079225569963455, -0.6895532011985779, 87.0, -10.103047626874549, -3.1814688182197357, android.sensor.accelerometer
1551582213337, 0.5279998779296875, -0.88671875, 12.281219482421875, -0.1974334716796875, -0.0402984619140625, -0.1959686279296875, -333.32672119140625, -16.461181640625, 2.46124267578125, 33.05299377441406, 0.022489309310913086, 1.544933557510376, -1.2996511459350586, 0.5956095457077026, 1.6029144525527954, 9.659814834594727, 995.3639526367188, 0.044546063989400864, -0.08079225569963455, -0.6895532011985779, 87.0, -10.103047626874549, -3.1814688182197357, android.sensor.gravity
1551582213352, 0.5279998779296875, -0.88671875, 12.281219482421875, -0.1974334716796875, -0.0402984619140625, -0.1959686279296875, -333.32672119140625, -16.461181640625, 2.46124267578125, 33.05299377441406, 0.04188239574432373, 2.5105574131011963, -2.487246513366699, 0.5956095457077026, 1.6029144525527954, 9.659814834594727, 995.3639526367188, 0.044546063989400864, -0.08079225569963455, -0.6895532011985779, 87.0, -10.103047626874549, -3.1814688182197357, android.sensor.linear_acceleration
1551582213357, 0.5279998779296875, -0.88671875, 12.281219482421875, -0.1974334716796875, -0.0402984619140625, -0.1959686279296875, -333.32672119140625, -16.461181640625, 2.46124267578125, 33.05299377441406, 0.04188239574432373, 2.5105574131011963, -2.487246513366699, 0.5956095457077026, 1.6029144525527954, 9.659814834594727, 995.3639526367188, 0.034871287643909454, -0.08606790751218796, -0.6948034167289734, 88.0, -9.749418851465371, -4.323929801252027, android.sensor.rotation_vector
1551582213362, 0.5279998779296875, -0.88671875, 12.281219482421875, -0.1974334716796875, -0.0402984619140625, -0.1959686279296875, -333.32672119140625, -16.461181640625, 2.46124267578125, 33.05299377441406, 0.04188239574432373, 2.5105574131011963, -2.487246513366699, 0.5956095457077026, 1.6029144525527954, 9.659814834594727, 995.3639526367188, 0.034871287643909454, -0.08606790751218796, -0.6948034167289734, 88.0, -9.749418851465371, -4.323929801252027, android.sensor.orientation
1551582213372, 0.5279998779296875, -0.88671875, 12.281219482421875, -0.1974334716796875, -0.0402984619140625, -0.1959686279296875, -333.32672119140625, -16.461181640625, 2.46124267578125, 33.05299377441406, 0.04188239574432373, 2.5105574131011963, -2.487246513366699, 0.5956095457077026, 1.6029144525527954, 9.659814834594727, 995.3639526367188, 0.034871287643909454, -0.08606790751218796, -0.6948034167289734, 88.0, -9.749418851465371, -4.323929801252027, android.sensor.pressure
1551582213410, 0.5279998779296875, -0.88671875, 12.281219482421875, -0.1974334716796875, -0.0402984619140625, -0.1959686279296875, -333.65631103515625, -15.65093994140625, 2.16217041015625, 33.05299377441406, 0.04188239574432373, 2.5105574131011963, -2.487246513366699, 0.5956095457077026, 1.6029144525527954, 9.659814834594727, 995.3639526367188, 0.034871287643909454, -0.08606790751218796, -0.6948034167289734, 88.0, -9.749418851465371, -4.323929801252027, android.sensor.magnetic_field
1551582213430, 0.5279998779296875, -0.88671875, 12.281219482421875, -0.2172698974609375, -0.416656494140625, -0.1925201416015625, -333.65631103515625, -15.65093994140625, 2.16217041015625, 33.05299377441406, 0.04188239574432373, 2.5105574131011963, -2.487246513366699, 0.5956095457077026, 1.6029144525527954, 9.659814834594727, 995.3639526367188, 0.034871287643909454, -0.08606790751218796, -0.6948034167289734, 88.0, -9.749418851465371, -4.323929801252027, android.sensor.gyroscope
1551582213434, 1.203369140625, 0.3255462646484375, 10.88250732421875, -0.2172698974609375, -0.416656494140625, -0.1925201416015625, -333.65631103515625, -15.65093994140625, 2.16217041015625, 33.05299377441406, 0.04188239574432373, 2.5105574131011963, -2.487246513366699, 0.5956095457077026, 1.6029144525527954, 9.659814834594727, 995.3639526367188, 0.034871287643909454, -0.08606790751218796, -0.6948034167289734, 88.0, -9.749418851465371, -4.323929801252027, android.sensor.accelerometer
1551582213435, 1.203369140625, 0.3255462646484375, 10.88250732421875, -0.2172698974609375, -0.416656494140625, -0.1925201416015625, -333.65631103515625, -15.65093994140625, 2.16217041015625, 33.05299377441406, 0.04188239574432373, 2.5105574131011963, -2.487246513366699, 0.9588056802749634, 1.4165712594985962, 9.659716606140137, 995.3639526367188, 0.034871287643909454, -0.08606790751218796, -0.6948034167289734, 88.0, -9.749418851465371, -4.323929801252027, android.sensor.gravity
1551582213449, 1.203369140625, 0.3255462646484375, 10.88250732421875, -0.2172698974609375, -0.416656494140625, -0.1925201416015625, -333.65631103515625, -15.65093994140625, 2.16217041015625, 33.05299377441406, -0.4374040365219116, 1.2598978281021118, -1.2051677703857422, 0.9588056802749634, 1.4165712594985962, 9.659716606140137, 995.3639526367188, 0.034871287643909454, -0.08606790751218796, -0.6948034167289734, 88.0, -9.749418851465371, -4.323929801252027, android.sensor.linear_acceleration
1551582213454, 1.203369140625, 0.3255462646484375, 10.88250732421875, -0.2172698974609375, -0.416656494140625, -0.1925201416015625, -333.65631103515625, -15.65093994140625, 2.16217041015625, 33.05299377441406, -0.4374040365219116, 1.2598978281021118, -1.2051677703857422, 0.9588056802749634, 1.4165712594985962, 9.659716606140137, 995.3639526367188, 0.018687011674046516, -0.07958877831697464, -0.705510675907135, 89.0, -7.967512997015547, -4.963629950989789, android.sensor.rotation_vector
1551582213459, 1.203369140625, 0.3255462646484375, 10.88250732421875, -0.2172698974609375, -0.416656494140625, -0.1925201416015625, -333.65631103515625, -15.65093994140625, 2.16217041015625, 33.05299377441406, -0.4374040365219116, 1.2598978281021118, -1.2051677703857422, 0.9588056802749634, 1.4165712594985962, 9.659716606140137, 995.3639526367188, 0.018687011674046516, -0.07958877831697464, -0.705510675907135, 89.0, -7.967512997015547, -4.963629950989789, android.sensor.orientation
1551582213472, 1.203369140625, 0.3255462646484375, 10.88250732421875, -0.2172698974609375, -0.416656494140625, -0.1925201416015625, -333.65631103515625, -15.65093994140625, 2.16217041015625, 33.05299377441406, -0.4374040365219116, 1.2598978281021118, -1.2051677703857422, 0.9588056802749634, 1.4165712594985962, 9.659716606140137, 995.35595703125, 0.018687011674046516, -0.07958877831697464, -0.705510675907135, 89.0, -7.967512997015547, -4.963629950989789, android.sensor.pressure
1551582213509, 1.203369140625, 0.3255462646484375, 10.88250732421875, -0.2172698974609375, -0.416656494140625, -0.1925201416015625, -335.6964111328125, -14.300537109375, 2.191162109375, 33.05299377441406, -0.4374040365219116, 1.2598978281021118, -1.2051677703857422, 0.9588056802749634, 1.4165712594985962, 9.659716606140137, 995.35595703125, 0.018687011674046516, -0.07958877831697464, -0.705510675907135, 89.0, -7.967512997015547, -4.963629950989789, android.sensor.magnetic_field
1551582213531, 1.203369140625, 0.3255462646484375, 10.88250732421875, -0.1173248291015625, 0.5480194091796875, -0.1175384521484375, -335.6964111328125, -14.300537109375, 2.191162109375, 33.05299377441406, -0.4374040365219116, 1.2598978281021118, -1.2051677703857422, 0.9588056802749634, 1.4165712594985962, 9.659716606140137, 995.35595703125, 0.018687011674046516, -0.07958877831697464, -0.705510675907135, 89.0, -7.967512997015547, -4.963629950989789, android.sensor.gyroscope
1551582213532, 1.203369140625, 0.3255462646484375, 10.88250732421875, -0.1173248291015625, 0.5480194091796875, -0.1175384521484375, -335.6964111328125, -14.300537109375, 2.191162109375, 33.05299377441406, -0.4374040365219116, 1.2598978281021118, -1.2051677703857422, 0.4248512089252472, 1.3130466938018799, 9.712442398071289, 995.35595703125, 0.018687011674046516, -0.07958877831697464, -0.705510675907135, 89.0, -7.967512997015547, -4.963629950989789, android.sensor.gravity
1551582213533, 0.613128662109375, 0.0947723388671875, 8.249237060546875, -0.1173248291015625, 0.5480194091796875, -0.1175384521484375, -335.6964111328125, -14.300537109375, 2.191162109375, 33.05299377441406, -0.4374040365219116, 1.2598978281021118, -1.2051677703857422, 0.4248512089252472, 1.3130466938018799, 9.712442398071289, 995.35595703125, 0.018687011674046516, -0.07958877831697464, -0.705510675907135, 89.0, -7.967512997015547, -4.963629950989789, android.sensor.accelerometer
1551582213549, 0.613128662109375, 0.0947723388671875, 8.249237060546875, -0.1173248291015625, 0.5480194091796875, -0.1175384521484375, -335.6964111328125, -14.300537109375, 2.191162109375, 33.05299377441406, -0.15241101384162903, 1.001244306564331, 1.5734891891479492, 0.4248512089252472, 1.3130466938018799, 9.712442398071289, 995.35595703125, 0.018687011674046516, -0.07958877831697464, -0.705510675907135, 89.0, -7.967512997015547, -4.963629950989789, android.sensor.linear_acceleration
1551582213553, 0.613128662109375, 0.0947723388671875, 8.249237060546875, -0.1173248291015625, 0.5480194091796875, -0.1175384521484375, -335.6964111328125, -14.300537109375, 2.191162109375, 33.05299377441406, -0.15241101384162903, 1.001244306564331, 1.5734891891479492, 0.4248512089252472, 1.3130466938018799, 9.712442398071289, 995.35595703125, 0.029478639364242554, -0.06091511994600296, -0.7093959450721741, 90.0, -7.341764362431182, -2.5222415845317308, android.sensor.rotation_vector
1551582213558, 0.613128662109375, 0.0947723388671875, 8.249237060546875, -0.1173248291015625, 0.5480194091796875, -0.1175384521484375, -335.6964111328125, -14.300537109375, 2.191162109375, 33.05299377441406, -0.15241101384162903, 1.001244306564331, 1.5734891891479492, 0.4248512089252472, 1.3130466938018799, 9.712442398071289, 995.35595703125, 0.029478639364242554, -0.06091511994600296, -0.7093959450721741, 90.0, -7.341764362431182, -2.5222415845317308, android.sensor.orientation
1551582213574, 0.613128662109375, 0.0947723388671875, 8.249237060546875, -0.1173248291015625, 0.5480194091796875, -0.1175384521484375, -335.6964111328125, -14.300537109375, 2.191162109375, 33.05299377441406, -0.15241101384162903, 1.001244306564331, 1.5734891891479492, 0.4248512089252472, 1.3130466938018799, 9.712442398071289, 995.345458984375, 0.029478639364242554, -0.06091511994600296, -0.7093959450721741, 90.0, -7.341764362431182, -2.5222415845317308, android.sensor.pressure
1551582213606, 0.613128662109375, 0.0947723388671875, 8.249237060546875, -0.1173248291015625, 0.5480194091796875, -0.1175384521484375, -335.45684814453125, -13.7603759765625, 2.0111083984375, 33.05299377441406, -0.15241101384162903, 1.001244306564331, 1.5734891891479492, 0.4248512089252472, 1.3130466938018799, 9.712442398071289, 995.345458984375, 0.029478639364242554, -0.06091511994600296, -0.7093959450721741, 90.0, -7.341764362431182, -2.5222415845317308, android.sensor.magnetic_field
1551582213627, 0.613128662109375, 0.0947723388671875, 8.249237060546875, -0.3885955810546875, 0.0110931396484375, -0.2232818603515625, -335.45684814453125, -13.7603759765625, 2.0111083984375, 33.05299377441406, -0.15241101384162903, 1.001244306564331, 1.5734891891479492, 0.4248512089252472, 1.3130466938018799, 9.712442398071289, 995.345458984375, 0.029478639364242554, -0.06091511994600296, -0.7093959450721741, 90.0, -7.341764362431182, -2.5222415845317308, android.sensor.gyroscope
1551582213631, 0.613128662109375, 0.0947723388671875, 8.249237060546875, -0.3885955810546875, 0.0110931396484375, -0.2232818603515625, -335.45684814453125, -13.7603759765625, 2.0111083984375, 33.05299377441406, -0.15241101384162903, 1.001244306564331, 1.5734891891479492, 0.3891904652118683, 0.9529609680175781, 9.755844116210938, 995.345458984375, 0.029478639364242554, -0.06091511994600296, -0.7093959450721741, 90.0, -7.341764362431182, -2.5222415845317308, android.sensor.gravity
1551582213631, 0.4612579345703125, 0.3428802490234375, 8.353591918945312, -0.3885955810546875, 0.0110931396484375, -0.2232818603515625, -335.45684814453125, -13.7603759765625, 2.0111083984375, 33.05299377441406, -0.15241101384162903, 1.001244306564331, 1.5734891891479492, 0.3891904652118683, 0.9529609680175781, 9.755844116210938, 995.345458984375, 0.029478639364242554, -0.06091511994600296, -0.7093959450721741, 90.0, -7.341764362431182, -2.5222415845317308, android.sensor.accelerometer
1551582213650, 0.4612579345703125, 0.3428802490234375, 8.353591918945312, -0.3885955810546875, 0.0110931396484375, -0.2232818603515625, -335.45684814453125, -13.7603759765625, 2.0111083984375, 33.05299377441406, -0.15960967540740967, 0.6366868019104004, 1.625467300415039, 0.3891904652118683, 0.9529609680175781, 9.755844116210938, 995.345458984375, 0.029478639364242554, -0.06091511994600296, -0.7093959450721741, 90.0, -7.341764362431182, -2.5222415845317308, android.sensor.linear_acceleration
1551582213650, 0.4612579345703125, 0.3428802490234375, 8.353591918945312, -0.3885955810546875, 0.0110931396484375, -0.2232818603515625, -335.45684814453125, -13.7603759765625, 2.0111083984375, 33.05299377441406, -0.15960967540740967, 0.6366868019104004, 1.625467300415039, 0.3891904652118683, 0.9529609680175781, 9.755844116210938, 995.345458984375, 0.020815014839172363, -0.04833780229091644, -0.7171072959899902, 91.0, -5.638897457056745, -2.149971088443471, android.sensor.rotation_vector
1551582213655, 0.4612579345703125, 0.3428802490234375, 8.353591918945312, -0.3885955810546875, 0.0110931396484375, -0.2232818603515625, -335.45684814453125, -13.7603759765625, 2.0111083984375, 33.05299377441406, -0.15960967540740967, 0.6366868019104004, 1.625467300415039, 0.3891904652118683, 0.9529609680175781, 9.755844116210938, 995.345458984375, 0.020815014839172363, -0.04833780229091644, -0.7171072959899902, 91.0, -5.638897457056745, -2.149971088443471, android.sensor.orientation
1551582213674, 0.4612579345703125, 0.3428802490234375, 8.353591918945312, -0.3885955810546875, 0.0110931396484375, -0.2232818603515625, -335.45684814453125, -13.7603759765625, 2.0111083984375, 33.05299377441406, -0.15960967540740967, 0.6366868019104004, 1.625467300415039, 0.3891904652118683, 0.9529609680175781, 9.755844116210938, 995.345458984375, 0.020815014839172363, -0.04833780229091644, -0.7171072959899902, 91.0, -5.638897457056745, -2.149971088443471, android.sensor.pressure
1551582213706, 0.4612579345703125, 0.3428802490234375, 8.353591918945312, -0.3885955810546875, 0.0110931396484375, -0.2232818603515625, -336.7767333984375, -12.80059814453125, 2.55126953125, 33.05299377441406, -0.15960967540740967, 0.6366868019104004, 1.625467300415039, 0.3891904652118683, 0.9529609680175781, 9.755844116210938, 995.345458984375, 0.020815014839172363, -0.04833780229091644, -0.7171072959899902, 91.0, -5.638897457056745, -2.149971088443471, android.sensor.magnetic_field
1551582213727, 0.4612579345703125, 0.3428802490234375, 8.353591918945312, 0.0793609619140625, -0.046844482421875, -0.0737762451171875, -336.7767333984375, -12.80059814453125, 2.55126953125, 33.05299377441406, -0.15960967540740967, 0.6366868019104004, 1.625467300415039, 0.3891904652118683, 0.9529609680175781, 9.755844116210938, 995.345458984375, 0.020815014839172363, -0.04833780229091644, -0.7171072959899902, 91.0, -5.638897457056745, -2.149971088443471, android.sensor.gyroscope
1551582213728, 0.3525543212890625, 1.1244354248046875, 6.5653839111328125, 0.0793609619140625, -0.046844482421875, -0.0737762451171875, -336.7767333984375, -12.80059814453125, 2.55126953125, 33.05299377441406, -0.15960967540740967, 0.6366868019104004, 1.625467300415039, 0.3891904652118683, 0.9529609680175781, 9.755844116210938, 995.345458984375, 0.020815014839172363, -0.04833780229091644, -0.7171072959899902, 91.0, -5.638897457056745, -2.149971088443471, android.sensor.accelerometer
1551582213729, 0.3525543212890625, 1.1244354248046875, 6.5653839111328125, 0.0793609619140625, -0.046844482421875, -0.0737762451171875, -336.7767333984375, -12.80059814453125, 2.55126953125, 33.05299377441406, -0.15960967540740967, 0.6366868019104004, 1.625467300415039, 0.42666345834732056, 1.0315946340560913, 9.746274948120117, 995.345458984375, 0.020815014839172363, -0.04833780229091644, -0.7171072959899902, 91.0, -5.638897457056745, -2.149971088443471, android.sensor.gravity
1551582213745, 0.3525543212890625, 1.1244354248046875, 6.5653839111328125, 0.0793609619140625, -0.046844482421875, -0.0737762451171875, -336.7767333984375, -12.80059814453125, 2.55126953125, 33.05299377441406, -0.030484795570373535, -0.18337488174438477, 2.7426815032958984, 0.42666345834732056, 1.0315946340560913, 9.746274948120117, 995.345458984375, 0.020815014839172363, -0.04833780229091644, -0.7171072959899902, 91.0, -5.638897457056745, -2.149971088443471, android.sensor.linear_acceleration
1551582213749, 0.3525543212890625, 1.1244354248046875, 6.5653839111328125, 0.0793609619140625, -0.046844482421875, -0.0737762451171875, -336.7767333984375, -12.80059814453125, 2.55126953125, 33.05299377441406, -0.030484795570373535, -0.18337488174438477, 2.7426815032958984, 0.42666345834732056, 1.0315946340560913, 9.746274948120117, 995.345458984375, 0.019826704636216164, -0.051886528730392456, -0.7193530797958374, 92.0, -5.860473916373837, -2.4964471616877657, android.sensor.rotation_vector
1551582213754, 0.3525543212890625, 1.1244354248046875, 6.5653839111328125, 0.0793609619140625, -0.046844482421875, -0.0737762451171875, -336.7767333984375, -12.80059814453125, 2.55126953125, 33.05299377441406, -0.030484795570373535, -0.18337488174438477, 2.7426815032958984, 0.42666345834732056, 1.0315946340560913, 9.746274948120117, 995.345458984375, 0.019826704636216164, -0.051886528730392456, -0.7193530797958374, 92.0, -5.860473916373837, -2.4964471616877657, android.sensor.orientation
1551582213772, 0.3525543212890625, 1.1244354248046875, 6.5653839111328125, 0.0793609619140625, -0.046844482421875, -0.0737762451171875, -336.7767333984375, -12.80059814453125, 2.55126953125, 33.05299377441406, -0.030484795570373535, -0.18337488174438477, 2.7426815032958984, 0.42666345834732056, 1.0315946340560913, 9.746274948120117, 995.2974243164062, 0.019826704636216164, -0.051886528730392456, -0.7193530797958374, 92.0, -5.860473916373837, -2.4964471616877657, android.sensor.pressure
1551582213801, 0.3525543212890625, 1.1244354248046875, 6.5653839111328125, 0.0793609619140625, -0.046844482421875, -0.0737762451171875, -338.9068603515625, -12.83111572265625, 1.89208984375, 33.05299377441406, -0.030484795570373535, -0.18337488174438477, 2.7426815032958984, 0.42666345834732056, 1.0315946340560913, 9.746274948120117, 995.2974243164062, 0.019826704636216164, -0.051886528730392456, -0.7193530797958374, 92.0, -5.860473916373837, -2.4964471616877657, android.sensor.magnetic_field
1551582213821, 0.3525543212890625, 1.1244354248046875, 6.5653839111328125, -0.04736328125, -0.236236572265625, -0.054962158203125, -338.9068603515625, -12.83111572265625, 1.89208984375, 33.05299377441406, -0.030484795570373535, -0.18337488174438477, 2.7426815032958984, 0.42666345834732056, 1.0315946340560913, 9.746274948120117, 995.2974243164062, 0.019826704636216164, -0.051886528730392456, -0.7193530797958374, 92.0, -5.860473916373837, -2.4964471616877657, android.sensor.gyroscope
1551582213826, 0.602264404296875, 0.5653228759765625, 11.63787841796875, -0.04736328125, -0.236236572265625, -0.054962158203125, -338.9068603515625, -12.83111572265625, 1.89208984375, 33.05299377441406, -0.030484795570373535, -0.18337488174438477, 2.7426815032958984, 0.42666345834732056, 1.0315946340560913, 9.746274948120117, 995.2974243164062, 0.019826704636216164, -0.051886528730392456, -0.7193530797958374, 92.0, -5.860473916373837, -2.4964471616877657, android.sensor.accelerometer
1551582213826, 0.602264404296875, 0.5653228759765625, 11.63787841796875, -0.04736328125, -0.236236572265625, -0.054962158203125, -338.9068603515625, -12.83111572265625, 1.89208984375, 33.05299377441406, -0.030484795570373535, -0.18337488174438477, 2.7426815032958984, 0.6461768746376038, 0.9881312251091003, 9.738693237304688, 995.2974243164062, 0.019826704636216164, -0.051886528730392456, -0.7193530797958374, 92.0, -5.860473916373837, -2.4964471616877657, android.sensor.gravity
1551582213840, 0.602264404296875, 0.5653228759765625, 11.63787841796875, -0.04736328125, -0.236236572265625, -0.054962158203125, -338.9068603515625, -12.83111572265625, 1.89208984375, 33.05299377441406, -0.04114657640457153, 0.6218118667602539, -3.0709447860717773, 0.6461768746376038, 0.9881312251091003, 9.738693237304688, 995.2974243164062, 0.019826704636216164, -0.051886528730392456, -0.7193530797958374, 92.0, -5.860473916373837, -2.4964471616877657, android.sensor.linear_acceleration
1551582213845, 0.602264404296875, 0.5653228759765625, 11.63787841796875, -0.04736328125, -0.236236572265625, -0.054962158203125, -338.9068603515625, -12.83111572265625, 1.89208984375, 33.05299377441406, -0.04114657640457153, 0.6218118667602539, -3.0709447860717773, 0.6461768746376038, 0.9881312251091003, 9.738693237304688, 995.2974243164062, 0.010692799463868141, -0.06141076236963272, -0.7203564643859863, 92.0, -5.926258456477991, -4.003225952736894, android.sensor.rotation_vector
1551582213856, 0.602264404296875, 0.5653228759765625, 11.63787841796875, -0.04736328125, -0.236236572265625, -0.054962158203125, -338.9068603515625, -12.83111572265625, 1.89208984375, 33.05299377441406, -0.04114657640457153, 0.6218118667602539, -3.0709447860717773, 0.6461768746376038, 0.9881312251091003, 9.738693237304688, 995.2974243164062, 0.010692799463868141, -0.06141076236963272, -0.7203564643859863, 92.0, -5.926258456477991, -4.003225952736894, android.sensor.orientation
1551582213875, 0.602264404296875, 0.5653228759765625, 11.63787841796875, -0.04736328125, -0.236236572265625, -0.054962158203125, -338.9068603515625, -12.83111572265625, 1.89208984375, 33.05299377441406, -0.04114657640457153, 0.6218118667602539, -3.0709447860717773, 0.6461768746376038, 0.9881312251091003, 9.738693237304688, 995.3052978515625, 0.010692799463868141, -0.06141076236963272, -0.7203564643859863, 92.0, -5.926258456477991, -4.003225952736894, android.sensor.pressure
1551582213885, 0.602264404296875, 0.5653228759765625, 11.63787841796875, -0.04736328125, -0.236236572265625, -0.054962158203125, -338.9068603515625, -12.83111572265625, 1.89208984375, 14.407989501953125, -0.04114657640457153, 0.6218118667602539, -3.0709447860717773, 0.6461768746376038, 0.9881312251091003, 9.738693237304688, 995.3052978515625, 0.010692799463868141, -0.06141076236963272, -0.7203564643859863, 92.0, -5.926258456477991, -4.003225952736894, android.sensor.light
1551582213902, 0.602264404296875, 0.5653228759765625, 11.63787841796875, -0.04736328125, -0.236236572265625, -0.054962158203125, -339.35699462890625, -12.11090087890625, 1.89208984375, 14.407989501953125, -0.04114657640457153, 0.6218118667602539, -3.0709447860717773, 0.6461768746376038, 0.9881312251091003, 9.738693237304688, 995.3052978515625, 0.010692799463868141, -0.06141076236963272, -0.7203564643859863, 92.0, -5.926258456477991, -4.003225952736894, android.sensor.magnetic_field
1551582213922, 0.602264404296875, 0.5653228759765625, 11.63787841796875, 0.1314697265625, 0.05029296875, 0.121185302734375, -339.35699462890625, -12.11090087890625, 1.89208984375, 14.407989501953125, -0.04114657640457153, 0.6218118667602539, -3.0709447860717773, 0.6461768746376038, 0.9881312251091003, 9.738693237304688, 995.3052978515625, 0.010692799463868141, -0.06141076236963272, -0.7203564643859863, 92.0, -5.926258456477991, -4.003225952736894, android.sensor.gyroscope
1551582213926, 0.2082366943359375, -0.215545654296875, 14.531753540039062, 0.1314697265625, 0.05029296875, 0.121185302734375, -339.35699462890625, -12.11090087890625, 1.89208984375, 14.407989501953125, -0.04114657640457153, 0.6218118667602539, -3.0709447860717773, 0.6461768746376038, 0.9881312251091003, 9.738693237304688, 995.3052978515625, 0.010692799463868141, -0.06141076236963272, -0.7203564643859863, 92.0, -5.926258456477991, -4.003225952736894, android.sensor.accelerometer
1551582213927, 0.2082366943359375, -0.215545654296875, 14.531753540039062, 0.1314697265625, 0.05029296875, 0.121185302734375, -339.35699462890625, -12.11090087890625, 1.89208984375, 14.407989501953125, -0.04114657640457153, 0.6218118667602539, -3.0709447860717773, 0.6116493344306946, 1.1047800779342651, 9.728384017944336, 995.3052978515625, 0.010692799463868141, -0.06141076236963272, -0.7203564643859863, 92.0, -5.926258456477991, -4.003225952736894, android.sensor.gravity
1551582213941, 0.2082366943359375, -0.215545654296875, 14.531753540039062, 0.1314697265625, 0.05029296875, 0.121185302734375, -339.35699462890625, -12.11090087890625, 1.89208984375, 14.407989501953125, 0.5059847831726074, 1.5420005321502686, -4.7297773361206055, 0.6116493344306946, 1.1047800779342651, 9.728384017944336, 995.3052978515625, 0.010692799463868141, -0.06141076236963272, -0.7203564643859863, 92.0, -5.926258456477991, -4.003225952736894, android.sensor.linear_acceleration
1551582213945, 0.2082366943359375, -0.215545654296875, 14.531753540039062, 0.1314697265625, 0.05029296875, 0.121185302734375, -339.35699462890625, -12.11090087890625, 1.89208984375, 14.407989501953125, 0.5059847831726074, 1.5420005321502686, -4.7297773361206055, 0.6116493344306946, 1.1047800779342651, 9.728384017944336, 995.3052978515625, 0.013274328783154488, -0.05903739854693413, -0.7156336903572083, 91.0, -5.910347530806447, -3.6407747073541747, android.sensor.rotation_vector
1551582213952, 0.2082366943359375, -0.215545654296875, 14.531753540039062, 0.1314697265625, 0.05029296875, 0.121185302734375, -339.35699462890625, -12.11090087890625, 1.89208984375, 14.407989501953125, 0.5059847831726074, 1.5420005321502686, -4.7297773361206055, 0.6116493344306946, 1.1047800779342651, 9.728384017944336, 995.3052978515625, 0.013274328783154488, -0.05903739854693413, -0.7156336903572083, 91.0, -5.910347530806447, -3.6407747073541747, android.sensor.orientation
1551582213976, 0.2082366943359375, -0.215545654296875, 14.531753540039062, 0.1314697265625, 0.05029296875, 0.121185302734375, -339.35699462890625, -12.11090087890625, 1.89208984375, 14.407989501953125, 0.5059847831726074, 1.5420005321502686, -4.7297773361206055, 0.6116493344306946, 1.1047800779342651, 9.728384017944336, 995.3052978515625, 0.013274328783154488, -0.05903739854693413, -0.7156336903572083, 91.0, -5.910347530806447, -3.6407747073541747, android.sensor.pressure
1551582213999, 0.2082366943359375, -0.215545654296875, 14.531753540039062, 0.1314697265625, 0.05029296875, 0.121185302734375, -338.8458251953125, -11.810302734375, 2.10113525390625, 14.407989501953125, 0.5059847831726074, 1.5420005321502686, -4.7297773361206055, 0.6116493344306946, 1.1047800779342651, 9.728384017944336, 995.3052978515625, 0.013274328783154488, -0.05903739854693413, -0.7156336903572083, 91.0, -5.910347530806447, -3.6407747073541747, android.sensor.magnetic_field
1551582214018, 0.2082366943359375, -0.215545654296875, 14.531753540039062, 0.1029205322265625, -0.0260467529296875, 0.5043792724609375, -338.8458251953125, -11.810302734375, 2.10113525390625, 14.407989501953125, 0.5059847831726074, 1.5420005321502686, -4.7297773361206055, 0.6116493344306946, 1.1047800779342651, 9.728384017944336, 995.3052978515625, 0.013274328783154488, -0.05903739854693413, -0.7156336903572083, 91.0, -5.910347530806447, -3.6407747073541747, android.sensor.gyroscope
1551582214022, -0.72796630859375, -1.135040283203125, 10.759414672851562, 0.1029205322265625, -0.0260467529296875, 0.5043792724609375, -338.8458251953125, -11.810302734375, 2.10113525390625, 14.407989501953125, 0.5059847831726074, 1.5420005321502686, -4.7297773361206055, 0.6116493344306946, 1.1047800779342651, 9.728384017944336, 995.3052978515625, 0.013274328783154488, -0.05903739854693413, -0.7156336903572083, 91.0, -5.910347530806447, -3.6407747073541747, android.sensor.accelerometer
1551582214023, -0.72796630859375, -1.135040283203125, 10.759414672851562, 0.1029205322265625, -0.0260467529296875, 0.5043792724609375, -338.8458251953125, -11.810302734375, 2.10113525390625, 14.407989501953125, 0.5059847831726074, 1.5420005321502686, -4.7297773361206055, 0.6887914538383484, 1.1713900566101074, 9.715426445007324, 995.3052978515625, 0.013274328783154488, -0.05903739854693413, -0.7156336903572083, 91.0, -5.910347530806447, -3.6407747073541747, android.sensor.gravity
1551582214039, -0.72796630859375, -1.135040283203125, 10.759414672851562, 0.1029205322265625, -0.0260467529296875, 0.5043792724609375, -338.8458251953125, -11.810302734375, 2.10113525390625, 14.407989501953125, 1.3341540098190308, 2.1090474128723145, -0.5023384094238281, 0.6887914538383484, 1.1713900566101074, 9.715426445007324, 995.3052978515625, 0.013274328783154488, -0.05903739854693413, -0.7156336903572083, 91.0, -5.910347530806447, -3.6407747073541747, android.sensor.linear_acceleration
1551582214043, -0.72796630859375, -1.135040283203125, 10.759414672851562, 0.1029205322265625, -0.0260467529296875, 0.5043792724609375, -338.8458251953125, -11.810302734375, 2.10113525390625, 14.407989501953125, 1.3341540098190308, 2.1090474128723145, -0.5023384094238281, 0.6887914538383484, 1.1713900566101074, 9.715426445007324, 995.3052978515625, 0.016241008415818214, -0.06584149599075317, -0.6941298246383667, 87.0, -6.585357197232236, -4.146142111590711, android.sensor.rotation_vector
1551582214047, -0.72796630859375, -1.135040283203125, 10.759414672851562, 0.1029205322265625, -0.0260467529296875, 0.5043792724609375, -338.8458251953125, -11.810302734375, 2.10113525390625, 14.407989501953125, 1.3341540098190308, 2.1090474128723145, -0.5023384094238281, 0.6887914538383484, 1.1713900566101074, 9.715426445007324, 995.3052978515625, 0.016241008415818214, -0.06584149599075317, -0.6941298246383667, 87.0, -6.585357197232236, -4.146142111590711, android.sensor.orientation
1551582214076, -0.72796630859375, -1.135040283203125, 10.759414672851562, 0.1029205322265625, -0.0260467529296875, 0.5043792724609375, -338.8458251953125, -11.810302734375, 2.10113525390625, 14.407989501953125, 1.3341540098190308, 2.1090474128723145, -0.5023384094238281, 0.6887914538383484, 1.1713900566101074, 9.715426445007324, 995.3092651367188, 0.016241008415818214, -0.06584149599075317, -0.6941298246383667, 87.0, -6.585357197232236, -4.146142111590711, android.sensor.pressure
1551582214097, -0.72796630859375, -1.135040283203125, 10.759414672851562, 0.1029205322265625, -0.0260467529296875, 0.5043792724609375, -336.65618896484375, -11.00006103515625, 1.38092041015625, 14.407989501953125, 1.3341540098190308, 2.1090474128723145, -0.5023384094238281, 0.6887914538383484, 1.1713900566101074, 9.715426445007324, 995.3092651367188, 0.016241008415818214, -0.06584149599075317, -0.6941298246383667, 87.0, -6.585357197232236, -4.146142111590711, android.sensor.magnetic_field
1551582214116, -0.72796630859375, -1.135040283203125, 10.759414672851562, -0.59771728515625, 0.381317138671875, 0.4158935546875, -336.65618896484375, -11.00006103515625, 1.38092041015625, 14.407989501953125, 1.3341540098190308, 2.1090474128723145, -0.5023384094238281, 0.6887914538383484, 1.1713900566101074, 9.715426445007324, 995.3092651367188, 0.016241008415818214, -0.06584149599075317, -0.6941298246383667, 87.0, -6.585357197232236, -4.146142111590711, android.sensor.gyroscope
1551582214122, -0.3386383056640625, -0.370574951171875, 7.6823577880859375, -0.59771728515625, 0.381317138671875, 0.4158935546875, -336.65618896484375, -11.00006103515625, 1.38092041015625, 14.407989501953125, 1.3341540098190308, 2.1090474128723145, -0.5023384094238281, 0.6887914538383484, 1.1713900566101074, 9.715426445007324, 995.3092651367188, 0.016241008415818214, -0.06584149599075317, -0.6941298246383667, 87.0, -6.585357197232236, -4.146142111590711, android.sensor.accelerometer
1551582214125, -0.3386383056640625, -0.370574951171875, 7.6823577880859375, -0.59771728515625, 0.381317138671875, 0.4158935546875, -336.65618896484375, -11.00006103515625, 1.38092041015625, 14.407989501953125, 1.3341540098190308, 2.1090474128723145, -0.5023384094238281, 0.36392366886138916, 0.5780994892120361, 9.786187171936035, 995.3092651367188, 0.016241008415818214, -0.06584149599075317, -0.6941298246383667, 87.0, -6.585357197232236, -4.146142111590711, android.sensor.gravity
1551582214135, -0.3386383056640625, -0.370574951171875, 7.6823577880859375, -0.59771728515625, 0.381317138671875, 0.4158935546875, -336.65618896484375, -11.00006103515625, 1.38092041015625, 14.407989501953125, 0.6708900928497314, 1.1637916564941406, 2.3546791076660156, 0.36392366886138916, 0.5780994892120361, 9.786187171936035, 995.3092651367188, 0.016241008415818214, -0.06584149599075317, -0.6941298246383667, 87.0, -6.585357197232236, -4.146142111590711, android.sensor.linear_acceleration
1551582214140, -0.3386383056640625, -0.370574951171875, 7.6823577880859375, -0.59771728515625, 0.381317138671875, 0.4158935546875, -336.65618896484375, -11.00006103515625, 1.38092041015625, 14.407989501953125, 0.6708900928497314, 1.1637916564941406, 2.3546791076660156, 0.36392366886138916, 0.5780994892120361, 9.786187171936035, 995.3092651367188, 0.0071613602340221405, -0.03525099903345108, -0.6827069520950317, 86.0, -3.3585973946261456, -2.3925817556398514, android.sensor.rotation_vector
1551582214145, -0.3386383056640625, -0.370574951171875, 7.6823577880859375, -0.59771728515625, 0.381317138671875, 0.4158935546875, -336.65618896484375, -11.00006103515625, 1.38092041015625, 14.407989501953125, 0.6708900928497314, 1.1637916564941406, 2.3546791076660156, 0.36392366886138916, 0.5780994892120361, 9.786187171936035, 995.3092651367188, 0.0071613602340221405, -0.03525099903345108, -0.6827069520950317, 86.0, -3.3585973946261456, -2.3925817556398514, android.sensor.orientation
1551582214176, -0.3386383056640625, -0.370574951171875, 7.6823577880859375, -0.59771728515625, 0.381317138671875, 0.4158935546875, -336.65618896484375, -11.00006103515625, 1.38092041015625, 14.407989501953125, 0.6708900928497314, 1.1637916564941406, 2.3546791076660156, 0.36392366886138916, 0.5780994892120361, 9.786187171936035, 995.3092651367188, 0.0071613602340221405, -0.03525099903345108, -0.6827069520950317, 86.0, -3.3585973946261456, -2.3925817556398514, android.sensor.pressure
1551582214194, -0.3386383056640625, -0.370574951171875, 7.6823577880859375, -0.59771728515625, 0.381317138671875, 0.4158935546875, -336.14654541015625, -10.09979248046875, 2.82135009765625, 14.407989501953125, 0.6708900928497314, 1.1637916564941406, 2.3546791076660156, 0.36392366886138916, 0.5780994892120361, 9.786187171936035, 995.3092651367188, 0.0071613602340221405, -0.03525099903345108, -0.6827069520950317, 86.0, -3.3585973946261456, -2.3925817556398514, android.sensor.magnetic_field
1551582214215, -0.3386383056640625, -0.370574951171875, 7.6823577880859375, 0.2978668212890625, -0.1049957275390625, 0.449676513671875, -336.14654541015625, -10.09979248046875, 2.82135009765625, 14.407989501953125, 0.6708900928497314, 1.1637916564941406, 2.3546791076660156, 0.36392366886138916, 0.5780994892120361, 9.786187171936035, 995.3092651367188, 0.0071613602340221405, -0.03525099903345108, -0.6827069520950317, 86.0, -3.3585973946261456, -2.3925817556398514, android.sensor.gyroscope
1551582214218, -0.059661865234375, -0.2447509765625, 6.72381591796875, 0.2978668212890625, -0.1049957275390625, 0.449676513671875, -336.14654541015625, -10.09979248046875, 2.82135009765625, 14.407989501953125, 0.6708900928497314, 1.1637916564941406, 2.3546791076660156, 0.36392366886138916, 0.5780994892120361, 9.786187171936035, 995.3092651367188, 0.0071613602340221405, -0.03525099903345108, -0.6827069520950317, 86.0, -3.3585973946261456, -2.3925817556398514, android.sensor.accelerometer
1551582214221, -0.059661865234375, -0.2447509765625, 6.72381591796875, 0.2978668212890625, -0.1049957275390625, 0.449676513671875, -336.14654541015625, -10.09979248046875, 2.82135009765625, 14.407989501953125, 0.6708900928497314, 1.1637916564941406, 2.3546791076660156, 0.49236297607421875, 0.8417880535125732, 9.761407852172852, 995.3092651367188, 0.0071613602340221405, -0.03525099903345108, -0.6827069520950317, 86.0, -3.3585973946261456, -2.3925817556398514, android.sensor.gravity
1551582214234, -0.059661865234375, -0.2447509765625, 6.72381591796875, 0.2978668212890625, -0.1049957275390625, 0.449676513671875, -336.14654541015625, -10.09979248046875, 2.82135009765625, 14.407989501953125, 0.4118451178073883, 0.9463713765144348, 3.091860771179199, 0.49236297607421875, 0.8417880535125732, 9.761407852172852, 995.3092651367188, 0.0071613602340221405, -0.03525099903345108, -0.6827069520950317, 86.0, -3.3585973946261456, -2.3925817556398514, android.sensor.linear_acceleration
1551582214238, -0.059661865234375, -0.2447509765625, 6.72381591796875, 0.2978668212890625, -0.1049957275390625, 0.449676513671875, -336.14654541015625, -10.09979248046875, 2.82135009765625, 14.407989501953125, 0.4118451178073883, 0.9463713765144348, 3.091860771179199, 0.49236297607421875, 0.8417880535125732, 9.761407852172852, 995.3092651367188, 0.018970660865306854, -0.04931013658642769, -0.6651379466056824, 83.0, -5.3855166487563135, -2.776196555609267, android.sensor.rotation_vector
1551582214243, -0.059661865234375, -0.2447509765625, 6.72381591796875, 0.2978668212890625, -0.1049957275390625, 0.449676513671875, -336.14654541015625, -10.09979248046875, 2.82135009765625, 14.407989501953125, 0.4118451178073883, 0.9463713765144348, 3.091860771179199, 0.49236297607421875, 0.8417880535125732, 9.761407852172852, 995.3092651367188, 0.018970660865306854, -0.04931013658642769, -0.6651379466056824, 83.0, -5.3855166487563135, -2.776196555609267, android.sensor.orientation
1551582214273, -0.059661865234375, -0.2447509765625, 6.72381591796875, 0.2978668212890625, -0.1049957275390625, 0.449676513671875, -336.14654541015625, -10.09979248046875, 2.82135009765625, 14.407989501953125, 0.4118451178073883, 0.9463713765144348, 3.091860771179199, 0.49236297607421875, 0.8417880535125732, 9.761407852172852, 995.3086547851562, 0.018970660865306854, -0.04931013658642769, -0.6651379466056824, 83.0, -5.3855166487563135, -2.776196555609267, android.sensor.pressure
1551582214291, -0.059661865234375, -0.2447509765625, 6.72381591796875, 0.2978668212890625, -0.1049957275390625, 0.449676513671875, -334.43603515625, -9.65118408203125, 0.60272216796875, 14.407989501953125, 0.4118451178073883, 0.9463713765144348, 3.091860771179199, 0.49236297607421875, 0.8417880535125732, 9.761407852172852, 995.3086547851562, 0.018970660865306854, -0.04931013658642769, -0.6651379466056824, 83.0, -5.3855166487563135, -2.776196555609267, android.sensor.magnetic_field
1551582214309, -0.059661865234375, -0.2447509765625, 6.72381591796875, 0.2990875244140625, -0.05511474609375, 0.2135162353515625, -334.43603515625, -9.65118408203125, 0.60272216796875, 14.407989501953125, 0.4118451178073883, 0.9463713765144348, 3.091860771179199, 0.49236297607421875, 0.8417880535125732, 9.761407852172852, 995.3086547851562, 0.018970660865306854, -0.04931013658642769, -0.6651379466056824, 83.0, -5.3855166487563135, -2.776196555609267, android.sensor.gyroscope
1551582214313, 0.199493408203125, 0.699951171875, 7.5171966552734375, 0.2990875244140625, -0.05511474609375, 0.2135162353515625, -334.43603515625, -9.65118408203125, 0.60272216796875, 14.407989501953125, 0.4118451178073883, 0.9463713765144348, 3.091860771179199, 0.49236297607421875, 0.8417880535125732, 9.761407852172852, 995.3086547851562, 0.018970660865306854, -0.04931013658642769, -0.6651379466056824, 83.0, -5.3855166487563135, -2.776196555609267, android.sensor.accelerometer
1551582214314, 0.199493408203125, 0.699951171875, 7.5171966552734375, 0.2990875244140625, -0.05511474609375, 0.2135162353515625, -334.43603515625, -9.65118408203125, 0.60272216796875, 14.407989501953125, 0.4118451178073883, 0.9463713765144348, 3.091860771179199, 0.5645987391471863, 1.11625075340271, 9.729918479919434, 995.3086547851562, 0.018970660865306854, -0.04931013658642769, -0.6651379466056824, 83.0, -5.3855166487563135, -2.776196555609267, android.sensor.gravity
1551582214329, 0.199493408203125, 0.699951171875, 7.5171966552734375, 0.2990875244140625, -0.05511474609375, 0.2135162353515625, -334.43603515625, -9.65118408203125, 0.60272216796875, 14.407989501953125, 0.20716416835784912, 0.4959390163421631, 1.3670873641967773, 0.5645987391471863, 1.11625075340271, 9.729918479919434, 995.3086547851562, 0.018970660865306854, -0.04931013658642769, -0.6651379466056824, 83.0, -5.3855166487563135, -2.776196555609267, android.sensor.linear_acceleration
1551582214333, 0.199493408203125, 0.699951171875, 7.5171966552734375, 0.2990875244140625, -0.05511474609375, 0.2135162353515625, -334.43603515625, -9.65118408203125, 0.60272216796875, 14.407989501953125, 0.20716416835784912, 0.4959390163421631, 1.3670873641967773, 0.5645987391471863, 1.11625075340271, 9.729918479919434, 995.3086547851562, 0.024132002145051956, -0.058715615421533585, -0.6598340272903442, 82.0, -6.524127112644011, -3.235665302066729, android.sensor.rotation_vector
1551582214338, 0.199493408203125, 0.699951171875, 7.5171966552734375, 0.2990875244140625, -0.05511474609375, 0.2135162353515625, -334.43603515625, -9.65118408203125, 0.60272216796875, 14.407989501953125, 0.20716416835784912, 0.4959390163421631, 1.3670873641967773, 0.5645987391471863, 1.11625075340271, 9.729918479919434, 995.3086547851562, 0.024132002145051956, -0.058715615421533585, -0.6598340272903442, 82.0, -6.524127112644011, -3.235665302066729, android.sensor.orientation
1551582214375, 0.199493408203125, 0.699951171875, 7.5171966552734375, 0.2990875244140625, -0.05511474609375, 0.2135162353515625, -334.43603515625, -9.65118408203125, 0.60272216796875, 14.407989501953125, 0.20716416835784912, 0.4959390163421631, 1.3670873641967773, 0.5645987391471863, 1.11625075340271, 9.729918479919434, 995.308349609375, 0.024132002145051956, -0.058715615421533585, -0.6598340272903442, 82.0, -6.524127112644011, -3.235665302066729, android.sensor.pressure
1551582214389, 0.199493408203125, 0.699951171875, 7.5171966552734375, 0.2990875244140625, -0.05511474609375, 0.2135162353515625, -334.82666015625, -9.44061279296875, 0.54168701171875, 14.407989501953125, 0.20716416835784912, 0.4959390163421631, 1.3670873641967773, 0.5645987391471863, 1.11625075340271, 9.729918479919434, 995.308349609375, 0.024132002145051956, -0.058715615421533585, -0.6598340272903442, 82.0, -6.524127112644011, -3.235665302066729, android.sensor.magnetic_field
1551582214410, 0.199493408203125, 0.699951171875, 7.5171966552734375, -0.233367919921875, -0.239898681640625, -0.068756103515625, -334.82666015625, -9.44061279296875, 0.54168701171875, 14.407989501953125, 0.20716416835784912, 0.4959390163421631, 1.3670873641967773, 0.5645987391471863, 1.11625075340271, 9.729918479919434, 995.308349609375, 0.024132002145051956, -0.058715615421533585, -0.6598340272903442, 82.0, -6.524127112644011, -3.235665302066729, android.sensor.gyroscope
1551582214413, 0.8232421875, -0.51776123046875, 13.602783203125, -0.233367919921875, -0.239898681640625, -0.068756103515625, -334.82666015625, -9.44061279296875, 0.54168701171875, 14.407989501953125, 0.20716416835784912, 0.4959390163421631, 1.3670873641967773, 0.5645987391471863, 1.11625075340271, 9.729918479919434, 995.308349609375, 0.024132002145051956, -0.058715615421533585, -0.6598340272903442, 82.0, -6.524127112644011, -3.235665302066729, android.sensor.accelerometer
1551582214414, 0.8232421875, -0.51776123046875, 13.602783203125, -0.233367919921875, -0.239898681640625, -0.068756103515625, -334.82666015625, -9.44061279296875, 0.54168701171875, 14.407989501953125, 0.20716416835784912, 0.4959390163421631, 1.3670873641967773, 0.78562331199646, 0.8978612422943115, 9.737183570861816, 995.308349609375, 0.024132002145051956, -0.058715615421533585, -0.6598340272903442, 82.0, -6.524127112644011, -3.235665302066729, android.sensor.gravity
1551582214430, 0.8232421875, -0.51776123046875, 13.602783203125, -0.233367919921875, -0.239898681640625, -0.068756103515625, -334.82666015625, -9.44061279296875, 0.54168701171875, 14.407989501953125, -0.24548721313476562, 1.7207379341125488, -4.681766510009766, 0.78562331199646, 0.8978612422943115, 9.737183570861816, 995.308349609375, 0.024132002145051956, -0.058715615421533585, -0.6598340272903442, 82.0, -6.524127112644011, -3.235665302066729, android.sensor.linear_acceleration
1551582214433, 0.8232421875, -0.51776123046875, 13.602783203125, -0.233367919921875, -0.239898681640625, -0.068756103515625, -334.82666015625, -9.44061279296875, 0.54168701171875, 14.407989501953125, -0.24548721313476562, 1.7207379341125488, -4.681766510009766, 0.78562331199646, 0.8978612422943115, 9.737183570861816, 995.308349609375, 0.004699158947914839, -0.061802152544260025, -0.6641141176223755, 83.0, -5.111237169142934, -4.944660808117371, android.sensor.rotation_vector
1551582214438, 0.8232421875, -0.51776123046875, 13.602783203125, -0.233367919921875, -0.239898681640625, -0.068756103515625, -334.82666015625, -9.44061279296875, 0.54168701171875, 14.407989501953125, -0.24548721313476562, 1.7207379341125488, -4.681766510009766, 0.78562331199646, 0.8978612422943115, 9.737183570861816, 995.308349609375, 0.004699158947914839, -0.061802152544260025, -0.6641141176223755, 83.0, -5.111237169142934, -4.944660808117371, android.sensor.orientation
1551582214475, 0.8232421875, -0.51776123046875, 13.602783203125, -0.233367919921875, -0.239898681640625, -0.068756103515625, -334.82666015625, -9.44061279296875, 0.54168701171875, 14.407989501953125, -0.24548721313476562, 1.7207379341125488, -4.681766510009766, 0.78562331199646, 0.8978612422943115, 9.737183570861816, 995.308349609375, 0.004699158947914839, -0.061802152544260025, -0.6641141176223755, 83.0, -5.111237169142934, -4.944660808117371, android.sensor.pressure
1551582214488, 0.8232421875, -0.51776123046875, 13.602783203125, -0.233367919921875, -0.239898681640625, -0.068756103515625, -335.96649169921875, -9.381103515625, 1.11236572265625, 14.407989501953125, -0.24548721313476562, 1.7207379341125488, -4.681766510009766, 0.78562331199646, 0.8978612422943115, 9.737183570861816, 995.308349609375, 0.004699158947914839, -0.061802152544260025, -0.6641141176223755, 83.0, -5.111237169142934, -4.944660808117371, android.sensor.magnetic_field
1551582214507, 0.8232421875, -0.51776123046875, 13.602783203125, -0.0965728759765625, -0.2169036865234375, 0.0050811767578125, -335.96649169921875, -9.381103515625, 1.11236572265625, 14.407989501953125, -0.24548721313476562, 1.7207379341125488, -4.681766510009766, 0.78562331199646, 0.8978612422943115, 9.737183570861816, 995.308349609375, 0.004699158947914839, -0.061802152544260025, -0.6641141176223755, 83.0, -5.111237169142934, -4.944660808117371, android.sensor.gyroscope
1551582214512, 0.8232421875, -0.51776123046875, 13.602783203125, -0.0965728759765625, -0.2169036865234375, 0.0050811767578125, -335.96649169921875, -9.381103515625, 1.11236572265625, 14.407989501953125, -0.24548721313476562, 1.7207379341125488, -4.681766510009766, 0.9921495318412781, 0.8039849996566772, 9.72652816772461, 995.308349609375, 0.004699158947914839, -0.061802152544260025, -0.6641141176223755, 83.0, -5.111237169142934, -4.944660808117371, android.sensor.gravity
1551582214512, 1.2455902099609375, -0.936798095703125, 12.994049072265625, -0.0965728759765625, -0.2169036865234375, 0.0050811767578125, -335.96649169921875, -9.381103515625, 1.11236572265625, 14.407989501953125, -0.24548721313476562, 1.7207379341125488, -4.681766510009766, 0.9921495318412781, 0.8039849996566772, 9.72652816772461, 995.308349609375, 0.004699158947914839, -0.061802152544260025, -0.6641141176223755, 83.0, -5.111237169142934, -4.944660808117371, android.sensor.accelerometer
1551582214527, 1.2455902099609375, -0.936798095703125, 12.994049072265625, -0.0965728759765625, -0.2169036865234375, 0.0050811767578125, -335.96649169921875, -9.381103515625, 1.11236572265625, 14.407989501953125, -0.19989287853240967, 1.4485197067260742, -2.68106746673584, 0.9921495318412781, 0.8039849996566772, 9.72652816772461, 995.308349609375, 0.004699158947914839, -0.061802152544260025, -0.6641141176223755, 83.0, -5.111237169142934, -4.944660808117371, android.sensor.linear_acceleration
1551582214531, 1.2455902099609375, -0.936798095703125, 12.994049072265625, -0.0965728759765625, -0.2169036865234375, 0.0050811767578125, -335.96649169921875, -9.381103515625, 1.11236572265625, 14.407989501953125, -0.19989287853240967, 1.4485197067260742, -2.68106746673584, 0.9921495318412781, 0.8039849996566772, 9.72652816772461, 995.308349609375, -0.009785984642803669, -0.06376483291387558, -0.6638615131378174, 83.0, -4.018558446763104, -6.216032647110367, android.sensor.rotation_vector
1551582214536, 1.2455902099609375, -0.936798095703125, 12.994049072265625, -0.0965728759765625, -0.2169036865234375, 0.0050811767578125, -335.96649169921875, -9.381103515625, 1.11236572265625, 14.407989501953125, -0.19989287853240967, 1.4485197067260742, -2.68106746673584, 0.9921495318412781, 0.8039849996566772, 9.72652816772461, 995.308349609375, -0.009785984642803669, -0.06376483291387558, -0.6638615131378174, 83.0, -4.018558446763104, -6.216032647110367, android.sensor.orientation
1551582214575, 1.2455902099609375, -0.936798095703125, 12.994049072265625, -0.0965728759765625, -0.2169036865234375, 0.0050811767578125, -335.96649169921875, -9.381103515625, 1.11236572265625, 14.407989501953125, -0.19989287853240967, 1.4485197067260742, -2.68106746673584, 0.9921495318412781, 0.8039849996566772, 9.72652816772461, 995.3063354492188, -0.009785984642803669, -0.06376483291387558, -0.6638615131378174, 83.0, -4.018558446763104, -6.216032647110367, android.sensor.pressure
1551582214585, 1.2455902099609375, -0.936798095703125, 12.994049072265625, -0.0965728759765625, -0.2169036865234375, 0.0050811767578125, -336.08551025390625, -9.3505859375, 1.50146484375, 14.407989501953125, -0.19989287853240967, 1.4485197067260742, -2.68106746673584, 0.9921495318412781, 0.8039849996566772, 9.72652816772461, 995.3063354492188, -0.009785984642803669, -0.06376483291387558, -0.6638615131378174, 83.0, -4.018558446763104, -6.216032647110367, android.sensor.magnetic_field
1551582214593, 1.2455902099609375, -0.936798095703125, 12.994049072265625, -0.0965728759765625, -0.2169036865234375, 0.0050811767578125, -336.08551025390625, -9.3505859375, 1.50146484375, 8.474990844726562, -0.19989287853240967, 1.4485197067260742, -2.68106746673584, 0.9921495318412781, 0.8039849996566772, 9.72652816772461, 995.3063354492188, -0.009785984642803669, -0.06376483291387558, -0.6638615131378174, 83.0, -4.018558446763104, -6.216032647110367, android.sensor.light
1551582214604, 1.2455902099609375, -0.936798095703125, 12.994049072265625, -0.25506591796875, -0.1426544189453125, -0.42529296875, -336.08551025390625, -9.3505859375, 1.50146484375, 8.474990844726562, -0.19989287853240967, 1.4485197067260742, -2.68106746673584, 0.9921495318412781, 0.8039849996566772, 9.72652816772461, 995.3063354492188, -0.009785984642803669, -0.06376483291387558, -0.6638615131378174, 83.0, -4.018558446763104, -6.216032647110367, android.sensor.gyroscope
1551582214609, 1.506622314453125, -0.4766845703125, 10.206695556640625, -0.25506591796875, -0.1426544189453125, -0.42529296875, -336.08551025390625, -9.3505859375, 1.50146484375, 8.474990844726562, -0.19989287853240967, 1.4485197067260742, -2.68106746673584, 0.9921495318412781, 0.8039849996566772, 9.72652816772461, 995.3063354492188, -0.009785984642803669, -0.06376483291387558, -0.6638615131378174, 83.0, -4.018558446763104, -6.216032647110367, android.sensor.accelerometer
1551582214609, 1.506622314453125, -0.4766845703125, 10.206695556640625, -0.25506591796875, -0.1426544189453125, -0.42529296875, -336.08551025390625, -9.3505859375, 1.50146484375, 8.474990844726562, -0.19989287853240967, 1.4485197067260742, -2.68106746673584, 1.1016656160354614, 0.6077921986579895, 9.728979110717773, 995.3063354492188, -0.009785984642803669, -0.06376483291387558, -0.6638615131378174, 83.0, -4.018558446763104, -6.216032647110367, android.sensor.gravity
1551582214624, 1.506622314453125, -0.4766845703125, 10.206695556640625, -0.25506591796875, -0.1426544189453125, -0.42529296875, -336.08551025390625, -9.3505859375, 1.50146484375, 8.474990844726562, -0.5512433052062988, 1.3008973598480225, -0.2806863784790039, 1.1016656160354614, 0.6077921986579895, 9.728979110717773, 995.3063354492188, -0.009785984642803669, -0.06376483291387558, -0.6638615131378174, 83.0, -4.018558446763104, -6.216032647110367, android.sensor.linear_acceleration
1551582214628, 1.506622314453125, -0.4766845703125, 10.206695556640625, -0.25506591796875, -0.1426544189453125, -0.42529296875, -336.08551025390625, -9.3505859375, 1.50146484375, 8.474990844726562, -0.5512433052062988, 1.3008973598480225, -0.2806863784790039, 1.1016656160354614, 0.6077921986579895, 9.728979110717773, 995.3063354492188, -0.014967775903642178, -0.061142291873693466, -0.6849921345710754, 86.0, -3.5566835527270935, -6.284982979894823, android.sensor.rotation_vector
1551582214634, 1.506622314453125, -0.4766845703125, 10.206695556640625, -0.25506591796875, -0.1426544189453125, -0.42529296875, -336.08551025390625, -9.3505859375, 1.50146484375, 8.474990844726562, -0.5512433052062988, 1.3008973598480225, -0.2806863784790039, 1.1016656160354614, 0.6077921986579895, 9.728979110717773, 995.3063354492188, -0.014967775903642178, -0.061142291873693466, -0.6849921345710754, 86.0, -3.5566835527270935, -6.284982979894823, android.sensor.orientation
1551582214675, 1.506622314453125, -0.4766845703125, 10.206695556640625, -0.25506591796875, -0.1426544189453125, -0.42529296875, -336.08551025390625, -9.3505859375, 1.50146484375, 8.474990844726562, -0.5512433052062988, 1.3008973598480225, -0.2806863784790039, 1.1016656160354614, 0.6077921986579895, 9.728979110717773, 995.3063354492188, -0.014967775903642178, -0.061142291873693466, -0.6849921345710754, 86.0, -3.5566835527270935, -6.284982979894823, android.sensor.pressure
1551582214682, 1.506622314453125, -0.4766845703125, 10.206695556640625, -0.25506591796875, -0.1426544189453125, -0.42529296875, -338.21563720703125, -8.78143310546875, 1.141357421875, 8.474990844726562, -0.5512433052062988, 1.3008973598480225, -0.2806863784790039, 1.1016656160354614, 0.6077921986579895, 9.728979110717773, 995.3063354492188, -0.014967775903642178, -0.061142291873693466, -0.6849921345710754, 86.0, -3.5566835527270935, -6.284982979894823, android.sensor.magnetic_field
1551582214703, 1.506622314453125, -0.4766845703125, 10.206695556640625, -0.065460205078125, 0.016815185546875, -0.7597503662109375, -338.21563720703125, -8.78143310546875, 1.141357421875, 8.474990844726562, -0.5512433052062988, 1.3008973598480225, -0.2806863784790039, 1.1016656160354614, 0.6077921986579895, 9.728979110717773, 995.3063354492188, -0.014967775903642178, -0.061142291873693466, -0.6849921345710754, 86.0, -3.5566835527270935, -6.284982979894823, android.sensor.gyroscope
1551582214707, 1.506622314453125, -0.4766845703125, 10.206695556640625, -0.065460205078125, 0.016815185546875, -0.7597503662109375, -338.21563720703125, -8.78143310546875, 1.141357421875, 8.474990844726562, -0.5512433052062988, 1.3008973598480225, -0.2806863784790039, 1.037926197052002, 0.6232362985610962, 9.735008239746094, 995.3063354492188, -0.014967775903642178, -0.061142291873693466, -0.6849921345710754, 86.0, -3.5566835527270935, -6.284982979894823, android.sensor.gravity
1551582214707, 1.1267242431640625, -0.749725341796875, 8.780319213867188, -0.065460205078125, 0.016815185546875, -0.7597503662109375, -338.21563720703125, -8.78143310546875, 1.141357421875, 8.474990844726562, -0.5512433052062988, 1.3008973598480225, -0.2806863784790039, 1.037926197052002, 0.6232362985610962, 9.735008239746094, 995.3063354492188, -0.014967775903642178, -0.061142291873693466, -0.6849921345710754, 86.0, -3.5566835527270935, -6.284982979894823, android.sensor.accelerometer
1551582214723, 1.1267242431640625, -0.749725341796875, 8.780319213867188, -0.065460205078125, 0.016815185546875, -0.7597503662109375, -338.21563720703125, -8.78143310546875, 1.141357421875, 8.474990844726562, -0.06408751010894775, 1.2684657573699951, 0.8724660873413086, 1.037926197052002, 0.6232362985610962, 9.735008239746094, 995.3063354492188, -0.014967775903642178, -0.061142291873693466, -0.6849921345710754, 86.0, -3.5566835527270935, -6.284982979894823, android.sensor.linear_acceleration
1551582214728, 1.1267242431640625, -0.749725341796875, 8.780319213867188, -0.065460205078125, 0.016815185546875, -0.7597503662109375, -338.21563720703125, -8.78143310546875, 1.141357421875, 8.474990844726562, -0.06408751010894775, 1.2684657573699951, 0.8724660873413086, 1.037926197052002, 0.6232362985610962, 9.735008239746094, 995.3063354492188, -0.016535650938749313, -0.05591890215873718, -0.7122704386711121, 90.0, -3.2404334144376326, -5.851292007695224, android.sensor.rotation_vector
1551582214731, 1.1267242431640625, -0.749725341796875, 8.780319213867188, -0.065460205078125, 0.016815185546875, -0.7597503662109375, -338.21563720703125, -8.78143310546875, 1.141357421875, 8.474990844726562, -0.06408751010894775, 1.2684657573699951, 0.8724660873413086, 1.037926197052002, 0.6232362985610962, 9.735008239746094, 995.3063354492188, -0.016535650938749313, -0.05591890215873718, -0.7122704386711121, 90.0, -3.2404334144376326, -5.851292007695224, android.sensor.orientation
1551582214773, 1.1267242431640625, -0.749725341796875, 8.780319213867188, -0.065460205078125, 0.016815185546875, -0.7597503662109375, -338.21563720703125, -8.78143310546875, 1.141357421875, 8.474990844726562, -0.06408751010894775, 1.2684657573699951, 0.8724660873413086, 1.037926197052002, 0.6232362985610962, 9.735008239746094, 995.3048706054688, -0.016535650938749313, -0.05591890215873718, -0.7122704386711121, 90.0, -3.2404334144376326, -5.851292007695224, android.sensor.pressure
1551582214779, 1.1267242431640625, -0.749725341796875, 8.780319213867188, -0.065460205078125, 0.016815185546875, -0.7597503662109375, -340.94696044921875, -9.68017578125, 1.44195556640625, 8.474990844726562, -0.06408751010894775, 1.2684657573699951, 0.8724660873413086, 1.037926197052002, 0.6232362985610962, 9.735008239746094, 995.3048706054688, -0.016535650938749313, -0.05591890215873718, -0.7122704386711121, 90.0, -3.2404334144376326, -5.851292007695224, android.sensor.magnetic_field
1551582214797, 1.1267242431640625, -0.749725341796875, 8.780319213867188, -0.1627960205078125, 0.09295654296875, -0.564361572265625, -340.94696044921875, -9.68017578125, 1.44195556640625, 8.474990844726562, -0.06408751010894775, 1.2684657573699951, 0.8724660873413086, 1.037926197052002, 0.6232362985610962, 9.735008239746094, 995.3048706054688, -0.016535650938749313, -0.05591890215873718, -0.7122704386711121, 90.0, -3.2404334144376326, -5.851292007695224, android.sensor.gyroscope
1551582214802, 0.6053314208984375, -0.5975341796875, 7.9379119873046875, -0.1627960205078125, 0.09295654296875, -0.564361572265625, -340.94696044921875, -9.68017578125, 1.44195556640625, 8.474990844726562, -0.06408751010894775, 1.2684657573699951, 0.8724660873413086, 1.037926197052002, 0.6232362985610962, 9.735008239746094, 995.3048706054688, -0.016535650938749313, -0.05591890215873718, -0.7122704386711121, 90.0, -3.2404334144376326, -5.851292007695224, android.sensor.accelerometer
1551582214803, 0.6053314208984375, -0.5975341796875, 7.9379119873046875, -0.1627960205078125, 0.09295654296875, -0.564361572265625, -340.94696044921875, -9.68017578125, 1.44195556640625, 8.474990844726562, -0.06408751010894775, 1.2684657573699951, 0.8724660873413086, 0.9200589656829834, 0.5210196375846863, 9.752852439880371, 995.3048706054688, -0.016535650938749313, -0.05591890215873718, -0.7122704386711121, 90.0, -3.2404334144376326, -5.851292007695224, android.sensor.gravity
1551582214817, 0.6053314208984375, -0.5975341796875, 7.9379119873046875, -0.1627960205078125, 0.09295654296875, -0.564361572265625, -340.94696044921875, -9.68017578125, 1.44195556640625, 8.474990844726562, 0.25039952993392944, 1.1338244676589966, 2.043166160583496, 0.9200589656829834, 0.5210196375846863, 9.752852439880371, 995.3048706054688, -0.016535650938749313, -0.05591890215873718, -0.7122704386711121, 90.0, -3.2404334144376326, -5.851292007695224, android.sensor.linear_acceleration
1551582214822, 0.6053314208984375, -0.5975341796875, 7.9379119873046875, -0.1627960205078125, 0.09295654296875, -0.564361572265625, -340.94696044921875, -9.68017578125, 1.44195556640625, 8.474990844726562, 0.25039952993392944, 1.1338244676589966, 2.043166160583496, 0.9200589656829834, 0.5210196375846863, 9.752852439880371, 995.3048706054688, -0.013622871600091457, -0.0533413365483284, -0.7284223437309265, 93.0, -3.3883599439344763, -5.328376566820456, android.sensor.rotation_vector
1551582214827, 0.6053314208984375, -0.5975341796875, 7.9379119873046875, -0.1627960205078125, 0.09295654296875, -0.564361572265625, -340.94696044921875, -9.68017578125, 1.44195556640625, 8.474990844726562, 0.25039952993392944, 1.1338244676589966, 2.043166160583496, 0.9200589656829834, 0.5210196375846863, 9.752852439880371, 995.3048706054688, -0.013622871600091457, -0.0533413365483284, -0.7284223437309265, 93.0, -3.3883599439344763, -5.328376566820456, android.sensor.orientation
1551582214874, 0.6053314208984375, -0.5975341796875, 7.9379119873046875, -0.1627960205078125, 0.09295654296875, -0.564361572265625, -340.94696044921875, -9.68017578125, 1.44195556640625, 8.474990844726562, 0.25039952993392944, 1.1338244676589966, 2.043166160583496, 0.9200589656829834, 0.5210196375846863, 9.752852439880371, 995.2989501953125, -0.013622871600091457, -0.0533413365483284, -0.7284223437309265, 93.0, -3.3883599439344763, -5.328376566820456, android.sensor.pressure
1551582214876, 0.6053314208984375, -0.5975341796875, 7.9379119873046875, -0.1627960205078125, 0.09295654296875, -0.564361572265625, -344.036865234375, -10.27984619140625, 0.39215087890625, 8.474990844726562, 0.25039952993392944, 1.1338244676589966, 2.043166160583496, 0.9200589656829834, 0.5210196375846863, 9.752852439880371, 995.2989501953125, -0.013622871600091457, -0.0533413365483284, -0.7284223437309265, 93.0, -3.3883599439344763, -5.328376566820456, android.sensor.magnetic_field
1551582214897, 0.6053314208984375, -0.5975341796875, 7.9379119873046875, 0.36761474609375, 0.49761962890625, -0.309051513671875, -344.036865234375, -10.27984619140625, 0.39215087890625, 8.474990844726562, 0.25039952993392944, 1.1338244676589966, 2.043166160583496, 0.9200589656829834, 0.5210196375846863, 9.752852439880371, 995.2989501953125, -0.013622871600091457, -0.0533413365483284, -0.7284223437309265, 93.0, -3.3883599439344763, -5.328376566820456, android.sensor.gyroscope
1551582214903, 0.348541259765625, 0.2263031005859375, 5.525115966796875, 0.36761474609375, 0.49761962890625, -0.309051513671875, -344.036865234375, -10.27984619140625, 0.39215087890625, 8.474990844726562, 0.25039952993392944, 1.1338244676589966, 2.043166160583496, 0.9200589656829834, 0.5210196375846863, 9.752852439880371, 995.2989501953125, -0.013622871600091457, -0.0533413365483284, -0.7284223437309265, 93.0, -3.3883599439344763, -5.328376566820456, android.sensor.accelerometer
1551582214903, 0.348541259765625, 0.2263031005859375, 5.525115966796875, 0.36761474609375, 0.49761962890625, -0.309051513671875, -344.036865234375, -10.27984619140625, 0.39215087890625, 8.474990844726562, 0.25039952993392944, 1.1338244676589966, 2.043166160583496, 0.42530888319015503, 0.8939964771270752, 9.759918212890625, 995.2989501953125, -0.013622871600091457, -0.0533413365483284, -0.7284223437309265, 93.0, -3.3883599439344763, -5.328376566820456, android.sensor.gravity
1551582214918, 0.348541259765625, 0.2263031005859375, 5.525115966796875, 0.36761474609375, 0.49761962890625, -0.309051513671875, -344.036865234375, -10.27984619140625, 0.39215087890625, 8.474990844726562, -0.001515030860900879, 0.620108962059021, 4.272645950317383, 0.42530888319015503, 0.8939964771270752, 9.759918212890625, 995.2989501953125, -0.013622871600091457, -0.0533413365483284, -0.7284223437309265, 93.0, -3.3883599439344763, -5.328376566820456, android.sensor.linear_acceleration
1551582214922, 0.348541259765625, 0.2263031005859375, 5.525115966796875, 0.36761474609375, 0.49761962890625, -0.309051513671875, -344.036865234375, -10.27984619140625, 0.39215087890625, 8.474990844726562, -0.001515030860900879, 0.620108962059021, 4.272645950317383, 0.42530888319015503, 0.8939964771270752, 9.759918212890625, 995.2989501953125, 0.018528716638684273, -0.0484091155230999, -0.736408531665802, 94.0, -5.525848861669749, -2.189042118373471, android.sensor.rotation_vector
1551582214928, 0.348541259765625, 0.2263031005859375, 5.525115966796875, 0.36761474609375, 0.49761962890625, -0.309051513671875, -344.036865234375, -10.27984619140625, 0.39215087890625, 8.474990844726562, -0.001515030860900879, 0.620108962059021, 4.272645950317383, 0.42530888319015503, 0.8939964771270752, 9.759918212890625, 995.2989501953125, 0.018528716638684273, -0.0484091155230999, -0.736408531665802, 94.0, -5.525848861669749, -2.189042118373471, android.sensor.orientation
1551582214976, 0.348541259765625, 0.2263031005859375, 5.525115966796875, 0.36761474609375, 0.49761962890625, -0.309051513671875, -344.036865234375, -10.27984619140625, 0.39215087890625, 8.474990844726562, -0.001515030860900879, 0.620108962059021, 4.272645950317383, 0.42530888319015503, 0.8939964771270752, 9.759918212890625, 995.2989501953125, 0.018528716638684273, -0.0484091155230999, -0.736408531665802, 94.0, -5.525848861669749, -2.189042118373471, android.sensor.pressure
1551582214977, 0.348541259765625, 0.2263031005859375, 5.525115966796875, 0.36761474609375, 0.49761962890625, -0.309051513671875, -343.58673095703125, -11.18011474609375, -0.71868896484375, 8.474990844726562, -0.001515030860900879, 0.620108962059021, 4.272645950317383, 0.42530888319015503, 0.8939964771270752, 9.759918212890625, 995.2989501953125, 0.018528716638684273, -0.0484091155230999, -0.736408531665802, 94.0, -5.525848861669749, -2.189042118373471, android.sensor.magnetic_field
1551582214996, 0.348541259765625, 0.2263031005859375, 5.525115966796875, 0.428131103515625, 0.0385894775390625, -0.035797119140625, -343.58673095703125, -11.18011474609375, -0.71868896484375, 8.474990844726562, -0.001515030860900879, 0.620108962059021, 4.272645950317383, 0.42530888319015503, 0.8939964771270752, 9.759918212890625, 995.2989501953125, 0.018528716638684273, -0.0484091155230999, -0.736408531665802, 94.0, -5.525848861669749, -2.189042118373471, android.sensor.gyroscope
1551582214999, 0.348541259765625, 0.2263031005859375, 5.525115966796875, 0.428131103515625, 0.0385894775390625, -0.035797119140625, -343.58673095703125, -11.18011474609375, -0.71868896484375, 8.474990844726562, -0.001515030860900879, 0.620108962059021, 4.272645950317383, 0.38663119077682495, 1.3018710613250732, 9.71554183959961, 995.2989501953125, 0.018528716638684273, -0.0484091155230999, -0.736408531665802, 94.0, -5.525848861669749, -2.189042118373471, android.sensor.gravity
1551582214999, 0.4398040771484375, 0.7619171142578125, 9.331588745117188, 0.428131103515625, 0.0385894775390625, -0.035797119140625, -343.58673095703125, -11.18011474609375, -0.71868896484375, 8.474990844726562, -0.001515030860900879, 0.620108962059021, 4.272645950317383, 0.38663119077682495, 1.3018710613250732, 9.71554183959961, 995.2989501953125, 0.018528716638684273, -0.0484091155230999, -0.736408531665802, 94.0, -5.525848861669749, -2.189042118373471, android.sensor.accelerometer
1551582215015, 0.4398040771484375, 0.7619171142578125, 9.331588745117188, 0.428131103515625, 0.0385894775390625, -0.035797119140625, -343.58673095703125, -11.18011474609375, -0.71868896484375, 8.474990844726562, -0.1628195345401764, 0.5051217079162598, -0.8358469009399414, 0.38663119077682495, 1.3018710613250732, 9.71554183959961, 995.2989501953125, 0.018528716638684273, -0.0484091155230999, -0.736408531665802, 94.0, -5.525848861669749, -2.189042118373471, android.sensor.linear_acceleration
1551582215021, 0.4398040771484375, 0.7619171142578125, 9.331588745117188, 0.428131103515625, 0.0385894775390625, -0.035797119140625, -343.58673095703125, -11.18011474609375, -0.71868896484375, 8.474990844726562, -0.1628195345401764, 0.5051217079162598, -0.8358469009399414, 0.38663119077682495, 1.3018710613250732, 9.71554183959961, 995.2989501953125, 0.03441628813743591, -0.06407830119132996, -0.732564389705658, 94.0, -8.074980047190174, -2.101840026022861, android.sensor.rotation_vector
1551582215024, 0.4398040771484375, 0.7619171142578125, 9.331588745117188, 0.428131103515625, 0.0385894775390625, -0.035797119140625, -343.58673095703125, -11.18011474609375, -0.71868896484375, 8.474990844726562, -0.1628195345401764, 0.5051217079162598, -0.8358469009399414, 0.38663119077682495, 1.3018710613250732, 9.71554183959961, 995.2989501953125, 0.03441628813743591, -0.06407830119132996, -0.732564389705658, 94.0, -8.074980047190174, -2.101840026022861, android.sensor.orientation
1551582215072, 0.4398040771484375, 0.7619171142578125, 9.331588745117188, 0.428131103515625, 0.0385894775390625, -0.035797119140625, -342.987060546875, -12.08038330078125, -1.1383056640625, 8.474990844726562, -0.1628195345401764, 0.5051217079162598, -0.8358469009399414, 0.38663119077682495, 1.3018710613250732, 9.71554183959961, 995.2989501953125, 0.03441628813743591, -0.06407830119132996, -0.732564389705658, 94.0, -8.074980047190174, -2.101840026022861, android.sensor.magnetic_field
1551582215073, 0.4398040771484375, 0.7619171142578125, 9.331588745117188, 0.428131103515625, 0.0385894775390625, -0.035797119140625, -342.987060546875, -12.08038330078125, -1.1383056640625, 8.474990844726562, -0.1628195345401764, 0.5051217079162598, -0.8358469009399414, 0.38663119077682495, 1.3018710613250732, 9.71554183959961, 995.2952270507812, 0.03441628813743591, -0.06407830119132996, -0.732564389705658, 94.0, -8.074980047190174, -2.101840026022861, android.sensor.pressure
1551582215093, 0.4398040771484375, 0.7619171142578125, 9.331588745117188, -0.0403289794921875, -0.051971435546875, 0.3367462158203125, -342.987060546875, -12.08038330078125, -1.1383056640625, 8.474990844726562, -0.1628195345401764, 0.5051217079162598, -0.8358469009399414, 0.38663119077682495, 1.3018710613250732, 9.71554183959961, 995.2952270507812, 0.03441628813743591, -0.06407830119132996, -0.732564389705658, 94.0, -8.074980047190174, -2.101840026022861, android.sensor.gyroscope
1551582215098, 0.6263275146484375, 0.655792236328125, 16.200225830078125, -0.0403289794921875, -0.051971435546875, 0.3367462158203125, -342.987060546875, -12.08038330078125, -1.1383056640625, 8.474990844726562, -0.1628195345401764, 0.5051217079162598, -0.8358469009399414, 0.38663119077682495, 1.3018710613250732, 9.71554183959961, 995.2952270507812, 0.03441628813743591, -0.06407830119132996, -0.732564389705658, 94.0, -8.074980047190174, -2.101840026022861, android.sensor.accelerometer
1551582215098, 0.6263275146484375, 0.655792236328125, 16.200225830078125, -0.0403289794921875, -0.051971435546875, 0.3367462158203125, -342.987060546875, -12.08038330078125, -1.1383056640625, 8.474990844726562, -0.1628195345401764, 0.5051217079162598, -0.8358469009399414, 0.479542076587677, 1.2488772869110107, 9.718356132507324, 995.2952270507812, 0.03441628813743591, -0.06407830119132996, -0.732564389705658, 94.0, -8.074980047190174, -2.101840026022861, android.sensor.gravity
1551582215112, 0.6263275146484375, 0.655792236328125, 16.200225830078125, -0.0403289794921875, -0.051971435546875, 0.3367462158203125, -342.987060546875, -12.08038330078125, -1.1383056640625, 8.474990844726562, -0.20106199383735657, 0.9527444839477539, -6.96120548248291, 0.479542076587677, 1.2488772869110107, 9.718356132507324, 995.2952270507812, 0.03441628813743591, -0.06407830119132996, -0.732564389705658, 94.0, -8.074980047190174, -2.101840026022861, android.sensor.linear_acceleration
1551582215116, 0.6263275146484375, 0.655792236328125, 16.200225830078125, -0.0403289794921875, -0.051971435546875, 0.3367462158203125, -342.987060546875, -12.08038330078125, -1.1383056640625, 8.474990844726562, -0.20106199383735657, 0.9527444839477539, -6.96120548248291, 0.479542076587677, 1.2488772869110107, 9.718356132507324, 995.2952270507812, 0.02582710236310959, -0.06158768758177757, -0.7205045819282532, 92.0, -7.146196836586676, -2.7613554083164757, android.sensor.rotation_vector
1551582215120, 0.6263275146484375, 0.655792236328125, 16.200225830078125, -0.0403289794921875, -0.051971435546875, 0.3367462158203125, -342.987060546875, -12.08038330078125, -1.1383056640625, 8.474990844726562, -0.20106199383735657, 0.9527444839477539, -6.96120548248291, 0.479542076587677, 1.2488772869110107, 9.718356132507324, 995.2952270507812, 0.02582710236310959, -0.06158768758177757, -0.7205045819282532, 92.0, -7.146196836586676, -2.7613554083164757, android.sensor.orientation
1551582215170, 0.6263275146484375, 0.655792236328125, 16.200225830078125, -0.0403289794921875, -0.051971435546875, 0.3367462158203125, -341.96624755859375, -10.760498046875, -1.64794921875, 8.474990844726562, -0.20106199383735657, 0.9527444839477539, -6.96120548248291, 0.479542076587677, 1.2488772869110107, 9.718356132507324, 995.2952270507812, 0.02582710236310959, -0.06158768758177757, -0.7205045819282532, 92.0, -7.146196836586676, -2.7613554083164757, android.sensor.magnetic_field
1551582215178, 0.6263275146484375, 0.655792236328125, 16.200225830078125, -0.0403289794921875, -0.051971435546875, 0.3367462158203125, -341.96624755859375, -10.760498046875, -1.64794921875, 8.474990844726562, -0.20106199383735657, 0.9527444839477539, -6.96120548248291, 0.479542076587677, 1.2488772869110107, 9.718356132507324, 995.29150390625, 0.02582710236310959, -0.06158768758177757, -0.7205045819282532, 92.0, -7.146196836586676, -2.7613554083164757, android.sensor.pressure
1551582215189, 0.6263275146484375, 0.655792236328125, 16.200225830078125, 0.13238525390625, -0.131744384765625, 1.0616302490234375, -341.96624755859375, -10.760498046875, -1.64794921875, 8.474990844726562, -0.20106199383735657, 0.9527444839477539, -6.96120548248291, 0.479542076587677, 1.2488772869110107, 9.718356132507324, 995.29150390625, 0.02582710236310959, -0.06158768758177757, -0.7205045819282532, 92.0, -7.146196836586676, -2.7613554083164757, android.sensor.gyroscope
1551582215193, -0.433197021484375, -0.2794036865234375, 12.377151489257812, 0.13238525390625, -0.131744384765625, 1.0616302490234375, -341.96624755859375, -10.760498046875, -1.64794921875, 8.474990844726562, -0.20106199383735657, 0.9527444839477539, -6.96120548248291, 0.479542076587677, 1.2488772869110107, 9.718356132507324, 995.29150390625, 0.02582710236310959, -0.06158768758177757, -0.7205045819282532, 92.0, -7.146196836586676, -2.7613554083164757, android.sensor.accelerometer
1551582215193, -0.433197021484375, -0.2794036865234375, 12.377151489257812, 0.13238525390625, -0.131744384765625, 1.0616302490234375, -341.96624755859375, -10.760498046875, -1.64794921875, 8.474990844726562, -0.20106199383735657, 0.9527444839477539, -6.96120548248291, 0.7343857884407043, 1.3114067316055298, 9.694173812866211, 995.29150390625, 0.02582710236310959, -0.06158768758177757, -0.7205045819282532, 92.0, -7.146196836586676, -2.7613554083164757, android.sensor.gravity
1551582215209, -0.433197021484375, -0.2794036865234375, 12.377151489257812, 0.13238525390625, -0.131744384765625, 1.0616302490234375, -341.96624755859375, -10.760498046875, -1.64794921875, 8.474990844726562, 1.1966981887817383, 1.3538002967834473, -1.9598779678344727, 0.7343857884407043, 1.3114067316055298, 9.694173812866211, 995.29150390625, 0.02582710236310959, -0.06158768758177757, -0.7205045819282532, 92.0, -7.146196836586676, -2.7613554083164757, android.sensor.linear_acceleration
1551582215214, -0.433197021484375, -0.2794036865234375, 12.377151489257812, 0.13238525390625, -0.131744384765625, 1.0616302490234375, -341.96624755859375, -10.760498046875, -1.64794921875, 8.474990844726562, 1.1966981887817383, 1.3538002967834473, -1.9598779678344727, 0.7343857884407043, 1.3114067316055298, 9.694173812866211, 995.29150390625, 0.020712735131382942, -0.07421714812517166, -0.6805313229560852, 85.0, -7.53889045206692, -4.6267048300827, android.sensor.rotation_vector
1551582215220, -0.433197021484375, -0.2794036865234375, 12.377151489257812, 0.13238525390625, -0.131744384765625, 1.0616302490234375, -341.96624755859375, -10.760498046875, -1.64794921875, 8.474990844726562, 1.1966981887817383, 1.3538002967834473, -1.9598779678344727, 0.7343857884407043, 1.3114067316055298, 9.694173812866211, 995.29150390625, 0.020712735131382942, -0.07421714812517166, -0.6805313229560852, 85.0, -7.53889045206692, -4.6267048300827, android.sensor.orientation
