timestamp, acc_x, acc_y, acc_z, gyro_x, gyro_y, gyro_z, mag_x, mag_y, mag_z, light, la_x, la_y, la_z, gravity_x, gravity_y, gravity_z, pressure, rot_x, rot_y, rot_z, azimuth, pitch, roll, sensor_change
1536635743411, 0.0, 0.0, 0.0, 0.0, 0.0, 0.0, 0.0, 0.0, 0.0, 253.0, 0.0, 0.0, 0.0, 0.0, 0.0, 0.0, 0.0, 0.0, 0.0, 0.0, 0.0, 0.0, 0.0, CM3323 RGB Sensor
1536635743420, 0.0, 0.0, 0.0, 0.0, 0.0, 0.0, 51.57899856567383, -0.4819999933242798, 5.803999900817871, 253.0, 0.0, 0.0, 0.0, 0.0, 0.0, 0.0, 0.0, 0.0, 0.0, 0.0, 0.0, 0.0, 0.0, YAS532 Magnetic Sensor
1536635743422, 0.0, 0.0, 0.0, 0.44806966185569763, 0.7073819637298584, 0.9385944604873657, 51.57899856567383, -0.4819999933242798, 5.803999900817871, 253.0, 0.0, 0.0, 0.0, 0.0, 0.0, 0.0, 0.0, 0.0, 0.0, 0.0, 0.0, 0.0, 0.0, K330 Gyroscope sensor
1536635743451, 0.0, 0.0, 0.0, 0.3998112976551056, 0.7073819637298584, 0.969443142414093, 51.57899856567383, -0.4819999933242798, 5.803999900817871, 253.0, 0.0, 0.0, 0.0, 0.0, 0.0, 0.0, 0.0, 0.0, 0.0, 0.0, 0.0, 0.0, 0.0, K330 Gyroscope sensor
1536635743453, 0.0, 0.0, 0.0, 0.3998112976551056, 0.7073819637298584, 0.969443142414093, 51.202999114990234, -0.4819999933242798, 5.056000232696533, 253.0, 0.0, 0.0, 0.0, 0.0, 0.0, 0.0, 0.0, 0.0, 0.0, 0.0, 0.0, 0.0, 0.0, YAS532 Magnetic Sensor
1536635743453, 0.0, 0.0, 0.0, -0.08185594528913498, 0.37171149253845215, 0.30115658044815063, 51.202999114990234, -0.4819999933242798, 5.056000232696533, 253.0, 0.0, 0.0, 0.0, 0.0, 0.0, 0.0, 0.0, 0.0, 0.0, 0.0, 0.0, 0.0, 0.0, K330 Gyroscope sensor
1536635743454, 0.0, 0.0, 0.0, -0.015271631069481373, 0.02626720629632473, 0.394618958234787, 51.202999114990234, -0.4819999933242798, 5.056000232696533, 253.0, 0.0, 0.0, 0.0, 0.0, 0.0, 0.0, 0.0, 0.0, 0.0, 0.0, 0.0, 0.0, 0.0, K330 Gyroscope sensor
1536635743471, 0.33518823981285095, 1.2653355598449707, 9.685144424438477, -0.015271631069481373, 0.02626720629632473, 0.394618958234787, 51.202999114990234, -0.4819999933242798, 5.056000232696533, 253.0, 0.0, 0.0, 0.0, 0.0, 0.0, 0.0, 0.0, 0.0, 0.0, 0.0, 0.0, 0.0, 0.0, K330 3-axis Accelerometer
1536635743471, 0.33518823981285095, 1.2653355598449707, 9.685144424438477, -0.015271631069481373, 0.02626720629632473, 0.394618958234787, 51.202999114990234, -0.4819999933242798, 5.056000232696533, 253.0, 0.0, 0.0, 0.0, 0.33633315563201904, 1.269667387008667, 9.718292236328125, 0.0, 0.0, 0.0, 0.0, 0.0, 0.0, 0.0, Gravity Sensor
1536635743472, 0.33518823981285095, 1.2653355598449707, 9.685144424438477, -0.015271631069481373, 0.02626720629632473, 0.394618958234787, 51.202999114990234, -0.4819999933242798, 5.056000232696533, 253.0, -0.0011449158191680908, -0.004331827163696289, -0.03314781188964844, 0.33633315563201904, 1.269667387008667, 9.718292236328125, 0.0, 0.0, 0.0, 0.0, 0.0, 0.0, 0.0, Linear Acceleration Sensor
1536635743473, 0.33518823981285095, 1.2653355598449707, 9.685144424438477, -0.015271631069481373, 0.02626720629632473, 0.394618958234787, 51.202999114990234, -0.4819999933242798, 5.056000232696533, 253.0, -0.0011449158191680908, -0.004331827163696289, -0.03314781188964844, 0.33633315563201904, 1.269667387008667, 9.718292236328125, 0.0, 0.05770879611372948, 0.03427350893616676, 0.7121686935424805, 268.0, -7.438964784509634, -1.9821290079873397, Rotation Vector Sensor
1536635743480, 0.33518823981285095, 1.2653355598449707, 9.685144424438477, -0.015271631069481373, 0.02626720629632473, 0.394618958234787, 51.202999114990234, -0.4819999933242798, 5.056000232696533, 253.0, -0.0011449158191680908, -0.004331827163696289, -0.03314781188964844, 0.33633315563201904, 1.269667387008667, 9.718292236328125, 0.0, 0.05770879611372948, 0.03427350893616676, 0.7121686935424805, 268.0, -7.438964784509634, -1.9821290079873397, Orientation Sensor
1536635743483, 0.33518823981285095, 1.2653355598449707, 9.685144424438477, -0.015271631069481373, 0.02626720629632473, 0.394618958234787, 51.202999114990234, -1.0709999799728394, 5.534999847412109, 253.0, -0.0011449158191680908, -0.004331827163696289, -0.03314781188964844, 0.33633315563201904, 1.269667387008667, 9.718292236328125, 0.0, 0.05770879611372948, 0.03427350893616676, 0.7121686935424805, 268.0, -7.438964784509634, -1.9821290079873397, YAS532 Magnetic Sensor
1536635743484, 0.33518823981285095, 1.2653355598449707, 9.685144424438477, -0.015271631069481373, 0.0708603709936142, 0.39156460762023926, 51.202999114990234, -1.0709999799728394, 5.534999847412109, 253.0, -0.0011449158191680908, -0.004331827163696289, -0.03314781188964844, 0.33633315563201904, 1.269667387008667, 9.718292236328125, 0.0, 0.05770879611372948, 0.03427350893616676, 0.7121686935424805, 268.0, -7.438964784509634, -1.9821290079873397, K330 Gyroscope sensor
1536635743486, 0.33518823981285095, 1.2653355598449707, 9.685144424438477, -0.015271631069481373, 0.0708603709936142, 0.39156460762023926, 51.202999114990234, -1.0709999799728394, 5.534999847412109, 254.0, -0.0011449158191680908, -0.004331827163696289, -0.03314781188964844, 0.33633315563201904, 1.269667387008667, 9.718292236328125, 0.0, 0.05770879611372948, 0.03427350893616676, 0.7121686935424805, 268.0, -7.438964784509634, -1.9821290079873397, CM3323 RGB Sensor
1536635743489, 0.33518823981285095, 1.2653355598449707, 9.685144424438477, -0.02382374368607998, 0.07177666574716568, 0.3937026560306549, 51.202999114990234, -1.0709999799728394, 5.534999847412109, 254.0, -0.0011449158191680908, -0.004331827163696289, -0.03314781188964844, 0.33633315563201904, 1.269667387008667, 9.718292236328125, 0.0, 0.05770879611372948, 0.03427350893616676, 0.7121686935424805, 268.0, -7.438964784509634, -1.9821290079873397, K330 Gyroscope sensor
1536635743494, 0.33518823981285095, 1.2653355598449707, 9.685144424438477, -0.02382374368607998, 0.07177666574716568, 0.3937026560306549, 51.202999114990234, -1.0709999799728394, 5.534999847412109, 254.0, -0.0011449158191680908, -0.004331827163696289, -0.03314781188964844, 0.33633315563201904, 1.269667387008667, 9.718292236328125, 0.0, 0.05770879611372948, 0.03427350893616676, 0.7121686935424805, 268.0, -7.438964784509634, -1.9821290079873397, YAS532 Magnetic Sensor
1536635743497, 0.33518823981285095, 1.2653355598449707, 9.685144424438477, -0.03695734590291977, 0.07299839705228806, 0.4031710624694824, 51.202999114990234, -1.0709999799728394, 5.534999847412109, 254.0, -0.0011449158191680908, -0.004331827163696289, -0.03314781188964844, 0.33633315563201904, 1.269667387008667, 9.718292236328125, 0.0, 0.05770879611372948, 0.03427350893616676, 0.7121686935424805, 268.0, -7.438964784509634, -1.9821290079873397, K330 Gyroscope sensor
1536635743499, 0.33518823981285095, 1.2653355598449707, 9.685144424438477, -0.03940080851316452, 0.06963863968849182, 0.4043927788734436, 51.202999114990234, -1.0709999799728394, 5.534999847412109, 254.0, -0.0011449158191680908, -0.004331827163696289, -0.03314781188964844, 0.33633315563201904, 1.269667387008667, 9.718292236328125, 0.0, 0.05770879611372948, 0.03427350893616676, 0.7121686935424805, 268.0, -7.438964784509634, -1.9821290079873397, K330 Gyroscope sensor
1536635743501, 0.33518823981285095, 1.2653355598449707, 9.685144424438477, -0.03940080851316452, 0.06963863968849182, 0.4043927788734436, 51.202999114990234, -1.0709999799728394, 5.002999782562256, 254.0, -0.0011449158191680908, -0.004331827163696289, -0.03314781188964844, 0.33633315563201904, 1.269667387008667, 9.718292236328125, 0.0, 0.05770879611372948, 0.03427350893616676, 0.7121686935424805, 268.0, -7.438964784509634, -1.9821290079873397, YAS532 Magnetic Sensor
1536635743503, 0.33518823981285095, 1.2653355598449707, 9.685144424438477, -0.03787364438176155, 0.0659734457731247, 0.40103304386138916, 51.202999114990234, -1.0709999799728394, 5.002999782562256, 254.0, -0.0011449158191680908, -0.004331827163696289, -0.03314781188964844, 0.33633315563201904, 1.269667387008667, 9.718292236328125, 0.0, 0.05770879611372948, 0.03427350893616676, 0.7121686935424805, 268.0, -7.438964784509634, -1.9821290079873397, K330 Gyroscope sensor
1536635743512, 0.33518823981285095, 1.2653355598449707, 9.685144424438477, -0.03756821155548096, 0.05803219974040985, 0.4053090810775757, 51.202999114990234, -1.0709999799728394, 5.002999782562256, 254.0, -0.0011449158191680908, -0.004331827163696289, -0.03314781188964844, 0.33633315563201904, 1.269667387008667, 9.718292236328125, 0.0, 0.05770879611372948, 0.03427350893616676, 0.7121686935424805, 268.0, -7.438964784509634, -1.9821290079873397, K330 Gyroscope sensor
1536635743521, 0.33518823981285095, 1.2653355598449707, 9.685144424438477, -0.03756821155548096, 0.05803219974040985, 0.4053090810775757, 50.87699890136719, -1.0709999799728394, 4.361999988555908, 254.0, -0.0011449158191680908, -0.004331827163696289, -0.03314781188964844, 0.33633315563201904, 1.269667387008667, 9.718292236328125, 0.0, 0.05770879611372948, 0.03427350893616676, 0.7121686935424805, 268.0, -7.438964784509634, -1.9821290079873397, YAS532 Magnetic Sensor
1536635743522, 0.33518823981285095, 1.2653355598449707, 9.685144424438477, -0.03481931984424591, 0.05161811411380768, 0.41141775250434875, 50.87699890136719, -1.0709999799728394, 4.361999988555908, 254.0, -0.0011449158191680908, -0.004331827163696289, -0.03314781188964844, 0.33633315563201904, 1.269667387008667, 9.718292236328125, 0.0, 0.05770879611372948, 0.03427350893616676, 0.7121686935424805, 268.0, -7.438964784509634, -1.9821290079873397, K330 Gyroscope sensor
1536635743528, 0.33518823981285095, 1.2653355598449707, 9.685144424438477, -0.02229658141732216, 0.03878994286060333, 0.413555771112442, 50.87699890136719, -1.0709999799728394, 4.361999988555908, 254.0, -0.0011449158191680908, -0.004331827163696289, -0.03314781188964844, 0.33633315563201904, 1.269667387008667, 9.718292236328125, 0.0, 0.05770879611372948, 0.03427350893616676, 0.7121686935424805, 268.0, -7.438964784509634, -1.9821290079873397, K330 Gyroscope sensor
1536635743545, 0.33518823981285095, 1.2653355598449707, 9.685144424438477, -0.02229658141732216, 0.03878994286060333, 0.413555771112442, 50.87699890136719, -1.0709999799728394, 4.361999988555908, 254.0, -0.0011449158191680908, -0.004331827163696289, -0.03314781188964844, 0.33633315563201904, 1.269667387008667, 9.718292236328125, 0.0, 0.05770879611372948, 0.03427350893616676, 0.7121686935424805, 268.0, -7.438964784509634, -1.9821290079873397, YAS532 Magnetic Sensor
1536635743545, 0.33518823981285095, 1.2653355598449707, 9.685144424438477, -0.00855211354792118, 0.013133603148162365, 0.4202753007411957, 50.87699890136719, -1.0709999799728394, 4.361999988555908, 254.0, -0.0011449158191680908, -0.004331827163696289, -0.03314781188964844, 0.33633315563201904, 1.269667387008667, 9.718292236328125, 0.0, 0.05770879611372948, 0.03427350893616676, 0.7121686935424805, 268.0, -7.438964784509634, -1.9821290079873397, K330 Gyroscope sensor
1536635743547, 0.33518823981285095, 1.2653355598449707, 9.685144424438477, 0.01191187184303999, -0.02321287989616394, 0.43218716979026794, 50.87699890136719, -1.0709999799728394, 4.361999988555908, 254.0, -0.0011449158191680908, -0.004331827163696289, -0.03314781188964844, 0.33633315563201904, 1.269667387008667, 9.718292236328125, 0.0, 0.05770879611372948, 0.03427350893616676, 0.7121686935424805, 268.0, -7.438964784509634, -1.9821290079873397, K330 Gyroscope sensor
1536635743563, 0.33518823981285095, 1.2653355598449707, 9.685144424438477, 0.01191187184303999, -0.02321287989616394, 0.43218716979026794, 51.40599822998047, -1.0709999799728394, 4.361999988555908, 254.0, -0.0011449158191680908, -0.004331827163696289, -0.03314781188964844, 0.33633315563201904, 1.269667387008667, 9.718292236328125, 0.0, 0.05770879611372948, 0.03427350893616676, 0.7121686935424805, 268.0, -7.438964784509634, -1.9821290079873397, YAS532 Magnetic Sensor
1536635743565, 0.33518823981285095, 1.2653355598449707, 9.685144424438477, 0.02474004216492176, -0.07757988572120667, 0.4144720733165741, 51.40599822998047, -1.0709999799728394, 4.361999988555908, 254.0, -0.0011449158191680908, -0.004331827163696289, -0.03314781188964844, 0.33633315563201904, 1.269667387008667, 9.718292236328125, 0.0, 0.05770879611372948, 0.03427350893616676, 0.7121686935424805, 268.0, -7.438964784509634, -1.9821290079873397, K330 Gyroscope sensor
1536635743568, 0.33518823981285095, 1.2653355598449707, 9.685144424438477, 0.026572637259960175, -0.11728613078594208, 0.3851505517959595, 51.40599822998047, -1.0709999799728394, 4.361999988555908, 254.0, -0.0011449158191680908, -0.004331827163696289, -0.03314781188964844, 0.33633315563201904, 1.269667387008667, 9.718292236328125, 0.0, 0.05770879611372948, 0.03427350893616676, 0.7121686935424805, 268.0, -7.438964784509634, -1.9821290079873397, K330 Gyroscope sensor
1536635743580, 0.33518823981285095, 1.2653355598449707, 9.685144424438477, 0.026572637259960175, -0.11728613078594208, 0.3851505517959595, 51.09400177001953, -1.0709999799728394, 4.361999988555908, 254.0, -0.0011449158191680908, -0.004331827163696289, -0.03314781188964844, 0.33633315563201904, 1.269667387008667, 9.718292236328125, 0.0, 0.05770879611372948, 0.03427350893616676, 0.7121686935424805, 268.0, -7.438964784509634, -1.9821290079873397, YAS532 Magnetic Sensor
1536635743581, 0.33518823981285095, 1.2653355598449707, 9.685144424438477, 0.025045474991202354, -0.12034045159816742, 0.2977968156337738, 51.09400177001953, -1.0709999799728394, 4.361999988555908, 254.0, -0.0011449158191680908, -0.004331827163696289, -0.03314781188964844, 0.33633315563201904, 1.269667387008667, 9.718292236328125, 0.0, 0.05770879611372948, 0.03427350893616676, 0.7121686935424805, 268.0, -7.438964784509634, -1.9821290079873397, K330 Gyroscope sensor
1536635743589, 0.33518823981285095, 1.2653355598449707, 9.685144424438477, 0.00855211354792118, -0.09834930300712585, 0.13836097717285156, 51.09400177001953, -1.0709999799728394, 4.361999988555908, 254.0, -0.0011449158191680908, -0.004331827163696289, -0.03314781188964844, 0.33633315563201904, 1.269667387008667, 9.718292236328125, 0.0, 0.05770879611372948, 0.03427350893616676, 0.7121686935424805, 268.0, -7.438964784509634, -1.9821290079873397, K330 Gyroscope sensor
1536635743601, 0.33518823981285095, 1.2653355598449707, 9.685144424438477, 0.00855211354792118, -0.09834930300712585, 0.13836097717285156, 51.680999755859375, -1.0709999799728394, 5.465000152587891, 254.0, -0.0011449158191680908, -0.004331827163696289, -0.03314781188964844, 0.33633315563201904, 1.269667387008667, 9.718292236328125, 0.0, 0.05770879611372948, 0.03427350893616676, 0.7121686935424805, 268.0, -7.438964784509634, -1.9821290079873397, YAS532 Magnetic Sensor
1536635743602, 0.33518823981285095, 1.2653355598449707, 9.685144424438477, -0.00427605677396059, -0.03756821155548096, -0.005803219974040985, 51.680999755859375, -1.0709999799728394, 5.465000152587891, 254.0, -0.0011449158191680908, -0.004331827163696289, -0.03314781188964844, 0.33633315563201904, 1.269667387008667, 9.718292236328125, 0.0, 0.05770879611372948, 0.03427350893616676, 0.7121686935424805, 268.0, -7.438964784509634, -1.9821290079873397, K330 Gyroscope sensor
1536635743614, 0.33518823981285095, 1.2653355598449707, 9.685144424438477, 0.01924225501716137, -0.001527163083665073, -0.04153883829712868, 51.680999755859375, -1.0709999799728394, 5.465000152587891, 254.0, -0.0011449158191680908, -0.004331827163696289, -0.03314781188964844, 0.33633315563201904, 1.269667387008667, 9.718292236328125, 0.0, 0.05770879611372948, 0.03427350893616676, 0.7121686935424805, 268.0, -7.438964784509634, -1.9821290079873397, K330 Gyroscope sensor
1536635743620, 0.33518823981285095, 1.2653355598449707, 9.685144424438477, 0.01924225501716137, -0.001527163083665073, -0.04153883829712868, 51.680999755859375, -1.6629999876022339, 3.878000020980835, 254.0, -0.0011449158191680908, -0.004331827163696289, -0.03314781188964844, 0.33633315563201904, 1.269667387008667, 9.718292236328125, 0.0, 0.05770879611372948, 0.03427350893616676, 0.7121686935424805, 268.0, -7.438964784509634, -1.9821290079873397, YAS532 Magnetic Sensor
1536635743622, 0.33518823981285095, 1.2653355598449707, 9.685144424438477, 0.03940080851316452, -0.03145955875515938, -0.06322455406188965, 51.680999755859375, -1.6629999876022339, 3.878000020980835, 254.0, -0.0011449158191680908, -0.004331827163696289, -0.03314781188964844, 0.33633315563201904, 1.269667387008667, 9.718292236328125, 0.0, 0.05770879611372948, 0.03427350893616676, 0.7121686935424805, 268.0, -7.438964784509634, -1.9821290079873397, K330 Gyroscope sensor
1536635743630, 0.33518823981285095, 1.2653355598449707, 9.685144424438477, 0.015882495790719986, -0.04184427112340927, -0.06963863968849182, 51.680999755859375, -1.6629999876022339, 3.878000020980835, 254.0, -0.0011449158191680908, -0.004331827163696289, -0.03314781188964844, 0.33633315563201904, 1.269667387008667, 9.718292236328125, 0.0, 0.05770879611372948, 0.03427350893616676, 0.7121686935424805, 268.0, -7.438964784509634, -1.9821290079873397, K330 Gyroscope sensor
1536635743646, 0.09038111567497253, 1.1139023303985596, 9.040505409240723, 0.015882495790719986, -0.04184427112340927, -0.06963863968849182, 51.680999755859375, -1.6629999876022339, 3.878000020980835, 254.0, -0.0011449158191680908, -0.004331827163696289, -0.03314781188964844, 0.33633315563201904, 1.269667387008667, 9.718292236328125, 0.0, 0.05770879611372948, 0.03427350893616676, 0.7121686935424805, 268.0, -7.438964784509634, -1.9821290079873397, K330 3-axis Accelerometer
1536635743649, 0.09038111567497253, 1.1139023303985596, 9.040505409240723, 0.015882495790719986, -0.04184427112340927, -0.06963863968849182, 51.680999755859375, -1.6629999876022339, 3.878000020980835, 254.0, -0.0011449158191680908, -0.004331827163696289, -0.03314781188964844, 0.21474483609199524, 1.2338991165161133, 9.726344108581543, 0.0, 0.05770879611372948, 0.03427350893616676, 0.7121686935424805, 268.0, -7.438964784509634, -1.9821290079873397, Gravity Sensor
1536635743650, 0.09038111567497253, 1.1139023303985596, 9.040505409240723, 0.015882495790719986, -0.04184427112340927, -0.06963863968849182, 51.680999755859375, -1.6629999876022339, 3.878000020980835, 254.0, -0.1243637204170227, -0.11999678611755371, -0.6858386993408203, 0.21474483609199524, 1.2338991165161133, 9.726344108581543, 0.0, 0.05770879611372948, 0.03427350893616676, 0.7121686935424805, 268.0, -7.438964784509634, -1.9821290079873397, Linear Acceleration Sensor
1536635743651, 0.09038111567497253, 1.1139023303985596, 9.040505409240723, 0.015882495790719986, -0.04184427112340927, -0.06963863968849182, 51.680999755859375, -1.6629999876022339, 3.878000020980835, 254.0, -0.1243637204170227, -0.11999678611755371, -0.6858386993408203, 0.21474483609199524, 1.2338991165161133, 9.726344108581543, 0.0, 0.05165853351354599, 0.037760790437459946, 0.7183283567428589, 267.0, -7.228270524087665, -1.2647937264920397, Rotation Vector Sensor
1536635743652, 0.09038111567497253, 1.1139023303985596, 9.040505409240723, 0.015882495790719986, -0.04184427112340927, -0.06963863968849182, 51.680999755859375, -1.6629999876022339, 3.878000020980835, 254.0, -0.1243637204170227, -0.11999678611755371, -0.6858386993408203, 0.21474483609199524, 1.2338991165161133, 9.726344108581543, 0.0, 0.05165853351354599, 0.037760790437459946, 0.7183283567428589, 267.0, -7.228270524087665, -1.2647937264920397, Orientation Sensor
1536635743653, 0.09038111567497253, 1.1139023303985596, 9.040505409240723, -0.04489859566092491, -0.03451388701796532, -0.07299839705228806, 51.680999755859375, -1.6629999876022339, 3.878000020980835, 254.0, -0.1243637204170227, -0.11999678611755371, -0.6858386993408203, 0.21474483609199524, 1.2338991165161133, 9.726344108581543, 0.0, 0.05165853351354599, 0.037760790437459946, 0.7183283567428589, 267.0, -7.228270524087665, -1.2647937264920397, K330 Gyroscope sensor
1536635743656, 0.09038111567497253, 1.1139023303985596, 9.040505409240723, -0.04489859566092491, -0.03451388701796532, -0.07299839705228806, 50.762001037597656, -1.2309999465942383, 4.2170000076293945, 254.0, -0.1243637204170227, -0.11999678611755371, -0.6858386993408203, 0.21474483609199524, 1.2338991165161133, 9.726344108581543, 0.0, 0.05165853351354599, 0.037760790437459946, 0.7183283567428589, 267.0, -7.228270524087665, -1.2647937264920397, YAS532 Magnetic Sensor
1536635743663, 0.09038111567497253, 1.1139023303985596, 9.040505409240723, -0.04489859566092491, -0.03451388701796532, -0.07299839705228806, 50.762001037597656, -1.2309999465942383, 4.2170000076293945, 261.0, -0.1243637204170227, -0.11999678611755371, -0.6858386993408203, 0.21474483609199524, 1.2338991165161133, 9.726344108581543, 0.0, 0.05165853351354599, 0.037760790437459946, 0.7183283567428589, 267.0, -7.228270524087665, -1.2647937264920397, CM3323 RGB Sensor
1536635743664, 0.09038111567497253, 1.1139023303985596, 9.040505409240723, -0.07880161702632904, -0.029016099870204926, -0.07452555745840073, 50.762001037597656, -1.2309999465942383, 4.2170000076293945, 261.0, -0.1243637204170227, -0.11999678611755371, -0.6858386993408203, 0.21474483609199524, 1.2338991165161133, 9.726344108581543, 0.0, 0.05165853351354599, 0.037760790437459946, 0.7183283567428589, 267.0, -7.228270524087665, -1.2647937264920397, K330 Gyroscope sensor
1536635743665, 0.09038111567497253, 1.1139023303985596, 9.040505409240723, -0.07880161702632904, -0.029016099870204926, -0.07452555745840073, 50.762001037597656, -1.2309999465942383, 3.9059998989105225, 261.0, -0.1243637204170227, -0.11999678611755371, -0.6858386993408203, 0.21474483609199524, 1.2338991165161133, 9.726344108581543, 0.0, 0.05165853351354599, 0.037760790437459946, 0.7183283567428589, 267.0, -7.228270524087665, -1.2647937264920397, YAS532 Magnetic Sensor
1536635743665, 0.09038111567497253, 1.1139023303985596, 9.040505409240723, -0.1408044397830963, -0.020463986322283745, -0.06230825558304787, 50.762001037597656, -1.2309999465942383, 3.9059998989105225, 261.0, -0.1243637204170227, -0.11999678611755371, -0.6858386993408203, 0.21474483609199524, 1.2338991165161133, 9.726344108581543, 0.0, 0.05165853351354599, 0.037760790437459946, 0.7183283567428589, 267.0, -7.228270524087665, -1.2647937264920397, K330 Gyroscope sensor
1536635743667, 0.09038111567497253, 1.1139023303985596, 9.040505409240723, -0.18906278908252716, 0.013133603148162365, -0.0354301854968071, 50.762001037597656, -1.2309999465942383, 3.9059998989105225, 261.0, -0.1243637204170227, -0.11999678611755371, -0.6858386993408203, 0.21474483609199524, 1.2338991165161133, 9.726344108581543, 0.0, 0.05165853351354599, 0.037760790437459946, 0.7183283567428589, 267.0, -7.228270524087665, -1.2647937264920397, K330 Gyroscope sensor
1536635743679, 0.09038111567497253, 1.1139023303985596, 9.040505409240723, -0.18906278908252716, 0.013133603148162365, -0.0354301854968071, 51.36399841308594, -0.8420000076293945, 4.747000217437744, 261.0, -0.1243637204170227, -0.11999678611755371, -0.6858386993408203, 0.21474483609199524, 1.2338991165161133, 9.726344108581543, 0.0, 0.05165853351354599, 0.037760790437459946, 0.7183283567428589, 267.0, -7.228270524087665, -1.2647937264920397, YAS532 Magnetic Sensor
1536635743680, 0.09038111567497253, 1.1139023303985596, 9.040505409240723, -0.2174680233001709, 0.0806342139840126, -0.02168571576476097, 51.36399841308594, -0.8420000076293945, 4.747000217437744, 261.0, -0.1243637204170227, -0.11999678611755371, -0.6858386993408203, 0.21474483609199524, 1.2338991165161133, 9.726344108581543, 0.0, 0.05165853351354599, 0.037760790437459946, 0.7183283567428589, 267.0, -7.228270524087665, -1.2647937264920397, K330 Gyroscope sensor
1536635743694, 0.09038111567497253, 1.1139023303985596, 9.040505409240723, -0.21991148591041565, 0.15454891324043274, -0.027183502912521362, 51.36399841308594, -0.8420000076293945, 4.747000217437744, 261.0, -0.1243637204170227, -0.11999678611755371, -0.6858386993408203, 0.21474483609199524, 1.2338991165161133, 9.726344108581543, 0.0, 0.05165853351354599, 0.037760790437459946, 0.7183283567428589, 267.0, -7.228270524087665, -1.2647937264920397, K330 Gyroscope sensor
1536635743702, 0.09038111567497253, 1.1139023303985596, 9.040505409240723, -0.21991148591041565, 0.15454891324043274, -0.027183502912521362, 51.36399841308594, -0.8420000076293945, 4.443999767303467, 261.0, -0.1243637204170227, -0.11999678611755371, -0.6858386993408203, 0.21474483609199524, 1.2338991165161133, 9.726344108581543, 0.0, 0.05165853351354599, 0.037760790437459946, 0.7183283567428589, 267.0, -7.228270524087665, -1.2647937264920397, YAS532 Magnetic Sensor
1536635743703, 0.09038111567497253, 1.1139023303985596, 9.040505409240723, -0.20494529604911804, 0.1921171247959137, -0.04703662544488907, 51.36399841308594, -0.8420000076293945, 4.443999767303467, 261.0, -0.1243637204170227, -0.11999678611755371, -0.6858386993408203, 0.21474483609199524, 1.2338991165161133, 9.726344108581543, 0.0, 0.05165853351354599, 0.037760790437459946, 0.7183283567428589, 267.0, -7.228270524087665, -1.2647937264920397, K330 Gyroscope sensor
1536635743711, 0.09038111567497253, 1.1139023303985596, 9.040505409240723, -0.17073683440685272, 0.18051068484783173, -0.06963863968849182, 51.36399841308594, -0.8420000076293945, 4.443999767303467, 261.0, -0.1243637204170227, -0.11999678611755371, -0.6858386993408203, 0.21474483609199524, 1.2338991165161133, 9.726344108581543, 0.0, 0.05165853351354599, 0.037760790437459946, 0.7183283567428589, 267.0, -7.228270524087665, -1.2647937264920397, K330 Gyroscope sensor
1536635743723, 0.09038111567497253, 1.1139023303985596, 9.040505409240723, -0.17073683440685272, 0.18051068484783173, -0.06963863968849182, 51.917999267578125, -0.8420000076293945, 4.443999767303467, 261.0, -0.1243637204170227, -0.11999678611755371, -0.6858386993408203, 0.21474483609199524, 1.2338991165161133, 9.726344108581543, 0.0, 0.05165853351354599, 0.037760790437459946, 0.7183283567428589, 267.0, -7.228270524087665, -1.2647937264920397, YAS532 Magnetic Sensor
1536635743729, 0.09038111567497253, 1.1139023303985596, 9.040505409240723, -0.11209376901388168, 0.11301007121801376, -0.07696902006864548, 51.917999267578125, -0.8420000076293945, 4.443999767303467, 261.0, -0.1243637204170227, -0.11999678611755371, -0.6858386993408203, 0.21474483609199524, 1.2338991165161133, 9.726344108581543, 0.0, 0.05165853351354599, 0.037760790437459946, 0.7183283567428589, 267.0, -7.228270524087665, -1.2647937264920397, K330 Gyroscope sensor
1536635743730, 0.09038111567497253, 1.1139023303985596, 9.040505409240723, -0.07880161702632904, 0.016798794269561768, -0.07208210229873657, 51.917999267578125, -0.8420000076293945, 4.443999767303467, 261.0, -0.1243637204170227, -0.11999678611755371, -0.6858386993408203, 0.21474483609199524, 1.2338991165161133, 9.726344108581543, 0.0, 0.05165853351354599, 0.037760790437459946, 0.7183283567428589, 267.0, -7.228270524087665, -1.2647937264920397, K330 Gyroscope sensor
1536635743746, 0.09038111567497253, 1.1139023303985596, 9.040505409240723, -0.07880161702632904, 0.016798794269561768, -0.07208210229873657, 51.917999267578125, -0.8420000076293945, 3.934999942779541, 261.0, -0.1243637204170227, -0.11999678611755371, -0.6858386993408203, 0.21474483609199524, 1.2338991165161133, 9.726344108581543, 0.0, 0.05165853351354599, 0.037760790437459946, 0.7183283567428589, 267.0, -7.228270524087665, -1.2647937264920397, YAS532 Magnetic Sensor
1536635743748, 0.09038111567497253, 1.1139023303985596, 9.040505409240723, -0.02535090781748295, -0.02932153269648552, -0.05955936014652252, 51.917999267578125, -0.8420000076293945, 3.934999942779541, 261.0, -0.1243637204170227, -0.11999678611755371, -0.6858386993408203, 0.21474483609199524, 1.2338991165161133, 9.726344108581543, 0.0, 0.05165853351354599, 0.037760790437459946, 0.7183283567428589, 267.0, -7.228270524087665, -1.2647937264920397, K330 Gyroscope sensor
1536635743749, 0.09038111567497253, 1.1139023303985596, 9.040505409240723, -0.008857546374201775, -0.09254608303308487, -0.05467243865132332, 51.917999267578125, -0.8420000076293945, 3.934999942779541, 261.0, -0.1243637204170227, -0.11999678611755371, -0.6858386993408203, 0.21474483609199524, 1.2338991165161133, 9.726344108581543, 0.0, 0.05165853351354599, 0.037760790437459946, 0.7183283567428589, 267.0, -7.228270524087665, -1.2647937264920397, K330 Gyroscope sensor
1536635743764, 0.09038111567497253, 1.1139023303985596, 9.040505409240723, -0.008857546374201775, -0.09254608303308487, -0.05467243865132332, 51.584999084472656, -0.8420000076293945, 3.934999942779541, 261.0, -0.1243637204170227, -0.11999678611755371, -0.6858386993408203, 0.21474483609199524, 1.2338991165161133, 9.726344108581543, 0.0, 0.05165853351354599, 0.037760790437459946, 0.7183283567428589, 267.0, -7.228270524087665, -1.2647937264920397, YAS532 Magnetic Sensor
1536635743766, 0.09038111567497253, 1.1139023303985596, 9.040505409240723, -0.03451388701796532, -0.0861319974064827, -0.052839845418930054, 51.584999084472656, -0.8420000076293945, 3.934999942779541, 261.0, -0.1243637204170227, -0.11999678611755371, -0.6858386993408203, 0.21474483609199524, 1.2338991165161133, 9.726344108581543, 0.0, 0.05165853351354599, 0.037760790437459946, 0.7183283567428589, 267.0, -7.228270524087665, -1.2647937264920397, K330 Gyroscope sensor
1536635743768, 0.09038111567497253, 1.1139023303985596, 9.040505409240723, -0.04306599870324135, 0.009162978269159794, -0.04245513305068016, 51.584999084472656, -0.8420000076293945, 3.934999942779541, 261.0, -0.1243637204170227, -0.11999678611755371, -0.6858386993408203, 0.21474483609199524, 1.2338991165161133, 9.726344108581543, 0.0, 0.05165853351354599, 0.037760790437459946, 0.7183283567428589, 267.0, -7.228270524087665, -1.2647937264920397, K330 Gyroscope sensor
1536635743780, 0.09038111567497253, 1.1139023303985596, 9.040505409240723, -0.04306599870324135, 0.009162978269159794, -0.04245513305068016, 51.099998474121094, -1.5130000114440918, 4.35099983215332, 261.0, -0.1243637204170227, -0.11999678611755371, -0.6858386993408203, 0.21474483609199524, 1.2338991165161133, 9.726344108581543, 0.0, 0.05165853351354599, 0.037760790437459946, 0.7183283567428589, 267.0, -7.228270524087665, -1.2647937264920397, YAS532 Magnetic Sensor
1536635743782, 0.09038111567497253, 1.1139023303985596, 9.040505409240723, 0.0064140851609408855, 0.14935655891895294, -0.021074850112199783, 51.099998474121094, -1.5130000114440918, 4.35099983215332, 261.0, -0.1243637204170227, -0.11999678611755371, -0.6858386993408203, 0.21474483609199524, 1.2338991165161133, 9.726344108581543, 0.0, 0.05165853351354599, 0.037760790437459946, 0.7183283567428589, 267.0, -7.228270524087665, -1.2647937264920397, K330 Gyroscope sensor
1536635743796, 0.09038111567497253, 1.1139023303985596, 9.040505409240723, 0.12003502249717712, 0.25961771607398987, -0.01191187184303999, 51.099998474121094, -1.5130000114440918, 4.35099983215332, 261.0, -0.1243637204170227, -0.11999678611755371, -0.6858386993408203, 0.21474483609199524, 1.2338991165161133, 9.726344108581543, 0.0, 0.05165853351354599, 0.037760790437459946, 0.7183283567428589, 267.0, -7.228270524087665, -1.2647937264920397, K330 Gyroscope sensor
1536635743804, 0.09038111567497253, 1.1139023303985596, 9.040505409240723, 0.12003502249717712, 0.25961771607398987, -0.01191187184303999, 51.099998474121094, -1.5130000114440918, 4.35099983215332, 261.0, -0.1243637204170227, -0.11999678611755371, -0.6858386993408203, 0.21474483609199524, 1.2338991165161133, 9.726344108581543, 0.0, 0.05165853351354599, 0.037760790437459946, 0.7183283567428589, 267.0, -7.228270524087665, -1.2647937264920397, YAS532 Magnetic Sensor
1536635743805, 0.09038111567497253, 1.1139023303985596, 9.040505409240723, 0.2822197377681732, 0.28527405858039856, -0.02687807008624077, 51.099998474121094, -1.5130000114440918, 4.35099983215332, 261.0, -0.1243637204170227, -0.11999678611755371, -0.6858386993408203, 0.21474483609199524, 1.2338991165161133, 9.726344108581543, 0.0, 0.05165853351354599, 0.037760790437459946, 0.7183283567428589, 267.0, -7.228270524087665, -1.2647937264920397, K330 Gyroscope sensor
1536635743815, 0.09038111567497253, 1.1139023303985596, 9.040505409240723, 0.36713001132011414, 0.2269364446401596, -0.043676864355802536, 51.099998474121094, -1.5130000114440918, 4.35099983215332, 261.0, -0.1243637204170227, -0.11999678611755371, -0.6858386993408203, 0.21474483609199524, 1.2338991165161133, 9.726344108581543, 0.0, 0.05165853351354599, 0.037760790437459946, 0.7183283567428589, 267.0, -7.228270524087665, -1.2647937264920397, K330 Gyroscope sensor
1536635743828, 0.5596446394920349, 1.6340426206588745, 6.479907035827637, 0.36713001132011414, 0.2269364446401596, -0.043676864355802536, 51.099998474121094, -1.5130000114440918, 4.35099983215332, 261.0, -0.1243637204170227, -0.11999678611755371, -0.6858386993408203, 0.21474483609199524, 1.2338991165161133, 9.726344108581543, 0.0, 0.05165853351354599, 0.037760790437459946, 0.7183283567428589, 267.0, -7.228270524087665, -1.2647937264920397, K330 3-axis Accelerometer
1536635743829, 0.5596446394920349, 1.6340426206588745, 6.479907035827637, 0.36713001132011414, 0.2269364446401596, -0.043676864355802536, 51.099998474121094, -1.5130000114440918, 4.35099983215332, 261.0, -0.1243637204170227, -0.11999678611755371, -0.6858386993408203, 0.3928879201412201, 1.5765140056610107, 9.671123504638672, 0.0, 0.05165853351354599, 0.037760790437459946, 0.7183283567428589, 267.0, -7.228270524087665, -1.2647937264920397, Gravity Sensor
1536635743830, 0.5596446394920349, 1.6340426206588745, 6.479907035827637, 0.36713001132011414, 0.2269364446401596, -0.043676864355802536, 51.099998474121094, -1.5130000114440918, 4.35099983215332, 261.0, 0.16675671935081482, 0.05752861499786377, -3.191216468811035, 0.3928879201412201, 1.5765140056610107, 9.671123504638672, 0.0, 0.05165853351354599, 0.037760790437459946, 0.7183283567428589, 267.0, -7.228270524087665, -1.2647937264920397, Linear Acceleration Sensor
1536635743831, 0.5596446394920349, 1.6340426206588745, 6.479907035827637, 0.36713001132011414, 0.2269364446401596, -0.043676864355802536, 51.099998474121094, -1.5130000114440918, 4.35099983215332, 261.0, 0.16675671935081482, 0.05752861499786377, -3.191216468811035, 0.3928879201412201, 1.5765140056610107, 9.671123504638672, 0.0, 0.07037488371133804, 0.0442415215075016, 0.7186546325683594, 267.0, -9.250993480746507, -2.3263568817776425, Rotation Vector Sensor
1536635743832, 0.5596446394920349, 1.6340426206588745, 6.479907035827637, 0.36713001132011414, 0.2269364446401596, -0.043676864355802536, 51.099998474121094, -1.5130000114440918, 4.35099983215332, 261.0, 0.16675671935081482, 0.05752861499786377, -3.191216468811035, 0.3928879201412201, 1.5765140056610107, 9.671123504638672, 0.0, 0.07037488371133804, 0.0442415215075016, 0.7186546325683594, 267.0, -9.250993480746507, -2.3263568817776425, Orientation Sensor
1536635743833, 0.5596446394920349, 1.6340426206588745, 6.479907035827637, 0.5073235630989075, 0.18020524084568024, -0.08429940044879913, 51.099998474121094, -1.5130000114440918, 4.35099983215332, 261.0, 0.16675671935081482, 0.05752861499786377, -3.191216468811035, 0.3928879201412201, 1.5765140056610107, 9.671123504638672, 0.0, 0.07037488371133804, 0.0442415215075016, 0.7186546325683594, 267.0, -9.250993480746507, -2.3263568817776425, K330 Gyroscope sensor
1536635743834, 0.5596446394920349, 1.6340426206588745, 6.479907035827637, 0.5073235630989075, 0.18020524084568024, -0.08429940044879913, 51.099998474121094, -1.5130000114440918, 4.35099983215332, 261.0, 0.16675671935081482, 0.05752861499786377, -3.191216468811035, 0.3928879201412201, 1.5765140056610107, 9.671123504638672, 0.0, 0.07037488371133804, 0.0442415215075016, 0.7186546325683594, 267.0, -9.250993480746507, -2.3263568817776425, YAS532 Magnetic Sensor
1536635743835, 0.5596446394920349, 1.6340426206588745, 6.479907035827637, 0.5073235630989075, 0.18020524084568024, -0.08429940044879913, 51.099998474121094, -1.5130000114440918, 4.35099983215332, 261.0, 0.16675671935081482, 0.05752861499786377, -3.191216468811035, 0.3928879201412201, 1.5765140056610107, 9.671123504638672, 996.9099731445313, 0.07037488371133804, 0.0442415215075016, 0.7186546325683594, 267.0, -9.250993480746507, -2.3263568817776425, Barometer Sensor
1536635743836, 0.5596446394920349, 1.6340426206588745, 6.479907035827637, 0.5073235630989075, 0.18020524084568024, -0.08429940044879913, 51.099998474121094, -1.5130000114440918, 4.35099983215332, 287.0, 0.16675671935081482, 0.05752861499786377, -3.191216468811035, 0.3928879201412201, 1.5765140056610107, 9.671123504638672, 996.9099731445313, 0.07037488371133804, 0.0442415215075016, 0.7186546325683594, 267.0, -9.250993480746507, -2.3263568817776425, CM3323 RGB Sensor
1536635743837, 0.5596446394920349, 1.6340426206588745, 6.479907035827637, 0.570242702960968, 0.08155050873756409, -0.12370020896196365, 51.099998474121094, -1.5130000114440918, 4.35099983215332, 287.0, 0.16675671935081482, 0.05752861499786377, -3.191216468811035, 0.3928879201412201, 1.5765140056610107, 9.671123504638672, 996.9099731445313, 0.07037488371133804, 0.0442415215075016, 0.7186546325683594, 267.0, -9.250993480746507, -2.3263568817776425, K330 Gyroscope sensor
1536635743839, 0.5596446394920349, 1.6340426206588745, 6.479907035827637, 0.570242702960968, 0.08155050873756409, -0.12370020896196365, 51.40800094604492, -1.5130000114440918, 4.35099983215332, 287.0, 0.16675671935081482, 0.05752861499786377, -3.191216468811035, 0.3928879201412201, 1.5765140056610107, 9.671123504638672, 996.9099731445313, 0.07037488371133804, 0.0442415215075016, 0.7186546325683594, 267.0, -9.250993480746507, -2.3263568817776425, YAS532 Magnetic Sensor
1536635743845, 0.5596446394920349, 1.6340426206588745, 6.479907035827637, 0.5522221922874451, -0.010079276748001575, -0.16279558837413788, 51.40800094604492, -1.5130000114440918, 4.35099983215332, 287.0, 0.16675671935081482, 0.05752861499786377, -3.191216468811035, 0.3928879201412201, 1.5765140056610107, 9.671123504638672, 996.9099731445313, 0.07037488371133804, 0.0442415215075016, 0.7186546325683594, 267.0, -9.250993480746507, -2.3263568817776425, K330 Gyroscope sensor
1536635743847, 0.5596446394920349, 1.6340426206588745, 6.479907035827637, 0.4712825417518616, -0.07513642311096191, -0.1973094791173935, 51.40800094604492, -1.5130000114440918, 4.35099983215332, 287.0, 0.16675671935081482, 0.05752861499786377, -3.191216468811035, 0.3928879201412201, 1.5765140056610107, 9.671123504638672, 996.9099731445313, 0.07037488371133804, 0.0442415215075016, 0.7186546325683594, 267.0, -9.250993480746507, -2.3263568817776425, K330 Gyroscope sensor
1536635743861, 0.5596446394920349, 1.6340426206588745, 6.479907035827637, 0.4712825417518616, -0.07513642311096191, -0.1973094791173935, 51.40800094604492, -1.5130000114440918, 4.35099983215332, 287.0, 0.16675671935081482, 0.05752861499786377, -3.191216468811035, 0.3928879201412201, 1.5765140056610107, 9.671123504638672, 996.9099731445313, 0.07037488371133804, 0.0442415215075016, 0.7186546325683594, 267.0, -9.250993480746507, -2.3263568817776425, YAS532 Magnetic Sensor
1536635743862, 0.5596446394920349, 1.6340426206588745, 6.479907035827637, 0.37690386176109314, -0.09468411654233932, -0.18967366218566895, 51.40800094604492, -1.5130000114440918, 4.35099983215332, 287.0, 0.16675671935081482, 0.05752861499786377, -3.191216468811035, 0.3928879201412201, 1.5765140056610107, 9.671123504638672, 996.9099731445313, 0.07037488371133804, 0.0442415215075016, 0.7186546325683594, 267.0, -9.250993480746507, -2.3263568817776425, K330 Gyroscope sensor
1536635743867, 0.5596446394920349, 1.6340426206588745, 6.479907035827637, 0.3142901659011841, -0.039706241339445114, -0.12919799983501434, 51.40800094604492, -1.5130000114440918, 4.35099983215332, 287.0, 0.16675671935081482, 0.05752861499786377, -3.191216468811035, 0.3928879201412201, 1.5765140056610107, 9.671123504638672, 996.9099731445313, 0.07037488371133804, 0.0442415215075016, 0.7186546325683594, 267.0, -9.250993480746507, -2.3263568817776425, K330 Gyroscope sensor
1536635743879, 0.5596446394920349, 1.6340426206588745, 6.479907035827637, 0.3142901659011841, -0.039706241339445114, -0.12919799983501434, 51.40800094604492, -1.5130000114440918, 4.35099983215332, 287.0, 0.16675671935081482, 0.05752861499786377, -3.191216468811035, 0.3928879201412201, 1.5765140056610107, 9.671123504638672, 996.9099731445313, 0.07037488371133804, 0.0442415215075016, 0.7186546325683594, 267.0, -9.250993480746507, -2.3263568817776425, YAS532 Magnetic Sensor
1536635743880, 0.5596446394920349, 1.6340426206588745, 6.479907035827637, 0.25931230187416077, 0.08429940044879913, -0.04795292019844055, 51.40800094604492, -1.5130000114440918, 4.35099983215332, 287.0, 0.16675671935081482, 0.05752861499786377, -3.191216468811035, 0.3928879201412201, 1.5765140056610107, 9.671123504638672, 996.9099731445313, 0.07037488371133804, 0.0442415215075016, 0.7186546325683594, 267.0, -9.250993480746507, -2.3263568817776425, K330 Gyroscope sensor
1536635743887, 0.5596446394920349, 1.6340426206588745, 6.479907035827637, 0.2324342280626297, 0.20525072515010834, -0.015271631069481373, 51.40800094604492, -1.5130000114440918, 4.35099983215332, 287.0, 0.16675671935081482, 0.05752861499786377, -3.191216468811035, 0.3928879201412201, 1.5765140056610107, 9.671123504638672, 996.9099731445313, 0.07037488371133804, 0.0442415215075016, 0.7186546325683594, 267.0, -9.250993480746507, -2.3263568817776425, K330 Gyroscope sensor
1536635743899, 0.5596446394920349, 1.6340426206588745, 6.479907035827637, 0.2324342280626297, 0.20525072515010834, -0.015271631069481373, 51.70800018310547, -1.5130000114440918, 4.35099983215332, 287.0, 0.16675671935081482, 0.05752861499786377, -3.191216468811035, 0.3928879201412201, 1.5765140056610107, 9.671123504638672, 996.9099731445313, 0.07037488371133804, 0.0442415215075016, 0.7186546325683594, 267.0, -9.250993480746507, -2.3263568817776425, YAS532 Magnetic Sensor
1536635743900, 0.5596446394920349, 1.6340426206588745, 6.479907035827637, 0.18509216606616974, 0.252287358045578, 0.01191187184303999, 51.70800018310547, -1.5130000114440918, 4.35099983215332, 287.0, 0.16675671935081482, 0.05752861499786377, -3.191216468811035, 0.3928879201412201, 1.5765140056610107, 9.671123504638672, 996.9099731445313, 0.07037488371133804, 0.0442415215075016, 0.7186546325683594, 267.0, -9.250993480746507, -2.3263568817776425, K330 Gyroscope sensor
1536635743913, 0.5596446394920349, 1.6340426206588745, 6.479907035827637, 0.1771509200334549, 0.32070425152778625, -0.015882495790719986, 51.70800018310547, -1.5130000114440918, 4.35099983215332, 287.0, 0.16675671935081482, 0.05752861499786377, -3.191216468811035, 0.3928879201412201, 1.5765140056610107, 9.671123504638672, 996.9099731445313, 0.07037488371133804, 0.0442415215075016, 0.7186546325683594, 267.0, -9.250993480746507, -2.3263568817776425, K330 Gyroscope sensor
1536635743921, 0.5596446394920349, 1.6340426206588745, 6.479907035827637, 0.1771509200334549, 0.32070425152778625, -0.015882495790719986, 51.70800018310547, -1.5130000114440918, 4.35099983215332, 287.0, 0.16675671935081482, 0.05752861499786377, -3.191216468811035, 0.3928879201412201, 1.5765140056610107, 9.671123504638672, 996.9099731445313, 0.07037488371133804, 0.0442415215075016, 0.7186546325683594, 267.0, -9.250993480746507, -2.3263568817776425, YAS532 Magnetic Sensor
1536635743929, 0.5596446394920349, 1.6340426206588745, 6.479907035827637, 0.252287358045578, 0.36163222789764404, -0.06963863968849182, 51.70800018310547, -1.5130000114440918, 4.35099983215332, 287.0, 0.16675671935081482, 0.05752861499786377, -3.191216468811035, 0.3928879201412201, 1.5765140056610107, 9.671123504638672, 996.9099731445313, 0.07037488371133804, 0.0442415215075016, 0.7186546325683594, 267.0, -9.250993480746507, -2.3263568817776425, K330 Gyroscope sensor
1536635743930, 0.5596446394920349, 1.6340426206588745, 6.479907035827637, 0.4156937897205353, 0.3430008292198181, -0.11667526513338089, 51.70800018310547, -1.5130000114440918, 4.35099983215332, 287.0, 0.16675671935081482, 0.05752861499786377, -3.191216468811035, 0.3928879201412201, 1.5765140056610107, 9.671123504638672, 996.9099731445313, 0.07037488371133804, 0.0442415215075016, 0.7186546325683594, 267.0, -9.250993480746507, -2.3263568817776425, K330 Gyroscope sensor
1536635743947, 0.5596446394920349, 1.6340426206588745, 6.479907035827637, 0.4156937897205353, 0.3430008292198181, -0.11667526513338089, 52.02399826049805, -1.5130000114440918, 4.35099983215332, 287.0, 0.16675671935081482, 0.05752861499786377, -3.191216468811035, 0.3928879201412201, 1.5765140056610107, 9.671123504638672, 996.9099731445313, 0.07037488371133804, 0.0442415215075016, 0.7186546325683594, 267.0, -9.250993480746507, -2.3263568817776425, YAS532 Magnetic Sensor
1536635743949, 0.5596446394920349, 1.6340426206588745, 6.479907035827637, 0.6392704844474792, 0.21288654208183289, -0.1408044397830963, 52.02399826049805, -1.5130000114440918, 4.35099983215332, 287.0, 0.16675671935081482, 0.05752861499786377, -3.191216468811035, 0.3928879201412201, 1.5765140056610107, 9.671123504638672, 996.9099731445313, 0.07037488371133804, 0.0442415215075016, 0.7186546325683594, 267.0, -9.250993480746507, -2.3263568817776425, K330 Gyroscope sensor
1536635743950, 0.5596446394920349, 1.6340426206588745, 6.479907035827637, 0.8295549750328064, -0.049785517156124115, -0.16249015927314758, 52.02399826049805, -1.5130000114440918, 4.35099983215332, 287.0, 0.16675671935081482, 0.05752861499786377, -3.191216468811035, 0.3928879201412201, 1.5765140056610107, 9.671123504638672, 996.9099731445313, 0.07037488371133804, 0.0442415215075016, 0.7186546325683594, 267.0, -9.250993480746507, -2.3263568817776425, K330 Gyroscope sensor
1536635743964, 0.5596446394920349, 1.6340426206588745, 6.479907035827637, 0.8295549750328064, -0.049785517156124115, -0.16249015927314758, 52.02399826049805, -1.5130000114440918, 4.35099983215332, 287.0, 0.16675671935081482, 0.05752861499786377, -3.191216468811035, 0.3928879201412201, 1.5765140056610107, 9.671123504638672, 996.9099731445313, 0.07037488371133804, 0.0442415215075016, 0.7186546325683594, 267.0, -9.250993480746507, -2.3263568817776425, YAS532 Magnetic Sensor
1536635743966, 0.5596446394920349, 1.6340426206588745, 6.479907035827637, 0.8484918475151062, -0.37079519033432007, -0.1817324161529541, 52.02399826049805, -1.5130000114440918, 4.35099983215332, 287.0, 0.16675671935081482, 0.05752861499786377, -3.191216468811035, 0.3928879201412201, 1.5765140056610107, 9.671123504638672, 996.9099731445313, 0.07037488371133804, 0.0442415215075016, 0.7186546325683594, 267.0, -9.250993480746507, -2.3263568817776425, K330 Gyroscope sensor
1536635743968, 0.5596446394920349, 1.6340426206588745, 6.479907035827637, 0.7635815739631653, -0.5641340613365173, -0.17531833052635193, 52.02399826049805, -1.5130000114440918, 4.35099983215332, 287.0, 0.16675671935081482, 0.05752861499786377, -3.191216468811035, 0.3928879201412201, 1.5765140056610107, 9.671123504638672, 996.9099731445313, 0.07037488371133804, 0.0442415215075016, 0.7186546325683594, 267.0, -9.250993480746507, -2.3263568817776425, K330 Gyroscope sensor
1536635743980, 0.5596446394920349, 1.6340426206588745, 6.479907035827637, 0.7635815739631653, -0.5641340613365173, -0.17531833052635193, 52.02399826049805, -1.812000036239624, 4.35099983215332, 287.0, 0.16675671935081482, 0.05752861499786377, -3.191216468811035, 0.3928879201412201, 1.5765140056610107, 9.671123504638672, 996.9099731445313, 0.07037488371133804, 0.0442415215075016, 0.7186546325683594, 267.0, -9.250993480746507, -2.3263568817776425, YAS532 Magnetic Sensor
1536635743982, 0.5596446394920349, 1.6340426206588745, 6.479907035827637, 0.4260784983634949, -0.5693264007568359, -0.12767083942890167, 52.02399826049805, -1.812000036239624, 4.35099983215332, 287.0, 0.16675671935081482, 0.05752861499786377, -3.191216468811035, 0.3928879201412201, 1.5765140056610107, 9.671123504638672, 996.9099731445313, 0.07037488371133804, 0.0442415215075016, 0.7186546325683594, 267.0, -9.250993480746507, -2.3263568817776425, K330 Gyroscope sensor
1536635744002, 0.5596446394920349, 1.6340426206588745, 6.479907035827637, -0.009773843921720982, -0.40103304386138916, -0.04795292019844055, 52.02399826049805, -1.812000036239624, 4.35099983215332, 287.0, 0.16675671935081482, 0.05752861499786377, -3.191216468811035, 0.3928879201412201, 1.5765140056610107, 9.671123504638672, 996.9099731445313, 0.07037488371133804, 0.0442415215075016, 0.7186546325683594, 267.0, -9.250993480746507, -2.3263568817776425, K330 Gyroscope sensor
1536635744004, 0.20231004059314728, 0.3016694188117981, 19.57439422607422, -0.009773843921720982, -0.40103304386138916, -0.04795292019844055, 52.02399826049805, -1.812000036239624, 4.35099983215332, 287.0, 0.16675671935081482, 0.05752861499786377, -3.191216468811035, 0.3928879201412201, 1.5765140056610107, 9.671123504638672, 996.9099731445313, 0.07037488371133804, 0.0442415215075016, 0.7186546325683594, 267.0, -9.250993480746507, -2.3263568817776425, K330 3-axis Accelerometer
1536635744009, 0.20231004059314728, 0.3016694188117981, 19.57439422607422, -0.009773843921720982, -0.40103304386138916, -0.04795292019844055, 52.02399826049805, -1.812000036239624, 4.35099983215332, 287.0, 0.16675671935081482, 0.05752861499786377, -3.191216468811035, 0.2511606514453888, 0.8826398253440857, 9.763618469238281, 996.9099731445313, 0.07037488371133804, 0.0442415215075016, 0.7186546325683594, 267.0, -9.250993480746507, -2.3263568817776425, Gravity Sensor
1536635744011, 0.20231004059314728, 0.3016694188117981, 19.57439422607422, -0.009773843921720982, -0.40103304386138916, -0.04795292019844055, 52.02399826049805, -1.812000036239624, 4.35099983215332, 287.0, -0.048850610852241516, -0.5809704065322876, 9.810775756835938, 0.2511606514453888, 0.8826398253440857, 9.763618469238281, 996.9099731445313, 0.07037488371133804, 0.0442415215075016, 0.7186546325683594, 267.0, -9.250993480746507, -2.3263568817776425, Linear Acceleration Sensor
1536635744013, 0.20231004059314728, 0.3016694188117981, 19.57439422607422, -0.009773843921720982, -0.40103304386138916, -0.04795292019844055, 52.02399826049805, -1.812000036239624, 4.35099983215332, 287.0, -0.048850610852241516, -0.5809704065322876, 9.810775756835938, 0.2511606514453888, 0.8826398253440857, 9.763618469238281, 996.9099731445313, 0.040465157479047775, 0.02359148859977722, 0.7200822234153748, 267.0, -5.163846701224958, -1.4735689172006459, Rotation Vector Sensor
1536635744014, 0.20231004059314728, 0.3016694188117981, 19.57439422607422, -0.009773843921720982, -0.40103304386138916, -0.04795292019844055, 52.02399826049805, -1.812000036239624, 4.35099983215332, 287.0, -0.048850610852241516, -0.5809704065322876, 9.810775756835938, 0.2511606514453888, 0.8826398253440857, 9.763618469238281, 996.9099731445313, 0.040465157479047775, 0.02359148859977722, 0.7200822234153748, 267.0, -5.163846701224958, -1.4735689172006459, Orientation Sensor
1536635744014, 0.20231004059314728, 0.3016694188117981, 19.57439422607422, -0.37140607833862305, -0.1007927656173706, 0.004581489134579897, 52.02399826049805, -1.812000036239624, 4.35099983215332, 287.0, -0.048850610852241516, -0.5809704065322876, 9.810775756835938, 0.2511606514453888, 0.8826398253440857, 9.763618469238281, 996.9099731445313, 0.040465157479047775, 0.02359148859977722, 0.7200822234153748, 267.0, -5.163846701224958, -1.4735689172006459, K330 Gyroscope sensor
1536635744015, 0.20231004059314728, 0.3016694188117981, 19.57439422607422, -0.37140607833862305, -0.1007927656173706, 0.004581489134579897, 52.345001220703125, -1.812000036239624, 4.35099983215332, 287.0, -0.048850610852241516, -0.5809704065322876, 9.810775756835938, 0.2511606514453888, 0.8826398253440857, 9.763618469238281, 996.9099731445313, 0.040465157479047775, 0.02359148859977722, 0.7200822234153748, 267.0, -5.163846701224958, -1.4735689172006459, YAS532 Magnetic Sensor
1536635744016, 0.20231004059314728, 0.3016694188117981, 19.57439422607422, -0.37140607833862305, -0.1007927656173706, 0.004581489134579897, 52.345001220703125, -1.812000036239624, 4.35099983215332, 287.0, -0.048850610852241516, -0.5809704065322876, 9.810775756835938, 0.2511606514453888, 0.8826398253440857, 9.763618469238281, 996.9600219726563, 0.040465157479047775, 0.02359148859977722, 0.7200822234153748, 267.0, -5.163846701224958, -1.4735689172006459, Barometer Sensor
1536635744018, 0.20231004059314728, 0.3016694188117981, 19.57439422607422, -0.37140607833862305, -0.1007927656173706, 0.004581489134579897, 52.345001220703125, -1.812000036239624, 4.35099983215332, 284.0, -0.048850610852241516, -0.5809704065322876, 9.810775756835938, 0.2511606514453888, 0.8826398253440857, 9.763618469238281, 996.9600219726563, 0.040465157479047775, 0.02359148859977722, 0.7200822234153748, 267.0, -5.163846701224958, -1.4735689172006459, CM3323 RGB Sensor
1536635744019, 0.20231004059314728, 0.3016694188117981, 19.57439422607422, -0.4859432876110077, 0.1469130963087082, -0.011301007121801376, 52.345001220703125, -1.812000036239624, 4.35099983215332, 284.0, -0.048850610852241516, -0.5809704065322876, 9.810775756835938, 0.2511606514453888, 0.8826398253440857, 9.763618469238281, 996.9600219726563, 0.040465157479047775, 0.02359148859977722, 0.7200822234153748, 267.0, -5.163846701224958, -1.4735689172006459, K330 Gyroscope sensor
1536635744020, 0.20231004059314728, 0.3016694188117981, 19.57439422607422, -0.4859432876110077, 0.1469130963087082, -0.011301007121801376, 52.345001220703125, -1.812000036239624, 4.708000183105469, 284.0, -0.048850610852241516, -0.5809704065322876, 9.810775756835938, 0.2511606514453888, 0.8826398253440857, 9.763618469238281, 996.9600219726563, 0.040465157479047775, 0.02359148859977722, 0.7200822234153748, 267.0, -5.163846701224958, -1.4735689172006459, YAS532 Magnetic Sensor
1536635744021, 0.20231004059314728, 0.3016694188117981, 19.57439422607422, -0.28038713335990906, 0.18387043476104736, -0.05100724846124649, 52.345001220703125, -1.812000036239624, 4.708000183105469, 284.0, -0.048850610852241516, -0.5809704065322876, 9.810775756835938, 0.2511606514453888, 0.8826398253440857, 9.763618469238281, 996.9600219726563, 0.040465157479047775, 0.02359148859977722, 0.7200822234153748, 267.0, -5.163846701224958, -1.4735689172006459, K330 Gyroscope sensor
1536635744031, 0.20231004059314728, 0.3016694188117981, 19.57439422607422, 0.096211276948452, -0.010079276748001575, -0.08888089656829834, 52.345001220703125, -1.812000036239624, 4.708000183105469, 284.0, -0.048850610852241516, -0.5809704065322876, 9.810775756835938, 0.2511606514453888, 0.8826398253440857, 9.763618469238281, 996.9600219726563, 0.040465157479047775, 0.02359148859977722, 0.7200822234153748, 267.0, -5.163846701224958, -1.4735689172006459, K330 Gyroscope sensor
1536635744044, 0.20231004059314728, 0.3016694188117981, 19.57439422607422, 0.096211276948452, -0.010079276748001575, -0.08888089656829834, 52.345001220703125, -1.812000036239624, 4.708000183105469, 284.0, -0.048850610852241516, -0.5809704065322876, 9.810775756835938, 0.2511606514453888, 0.8826398253440857, 9.763618469238281, 996.9600219726563, 0.040465157479047775, 0.02359148859977722, 0.7200822234153748, 267.0, -5.163846701224958, -1.4735689172006459, YAS532 Magnetic Sensor
1536635744045, 0.20231004059314728, 0.3016694188117981, 19.57439422607422, 0.3634648323059082, -0.2926044464111328, -0.11331550031900406, 52.345001220703125, -1.812000036239624, 4.708000183105469, 284.0, -0.048850610852241516, -0.5809704065322876, 9.810775756835938, 0.2511606514453888, 0.8826398253440857, 9.763618469238281, 996.9600219726563, 0.040465157479047775, 0.02359148859977722, 0.7200822234153748, 267.0, -5.163846701224958, -1.4735689172006459, K330 Gyroscope sensor
1536635744050, 0.20231004059314728, 0.3016694188117981, 19.57439422607422, 0.40133845806121826, -0.4847215712070465, -0.12034045159816742, 52.345001220703125, -1.812000036239624, 4.708000183105469, 284.0, -0.048850610852241516, -0.5809704065322876, 9.810775756835938, 0.2511606514453888, 0.8826398253440857, 9.763618469238281, 996.9600219726563, 0.040465157479047775, 0.02359148859977722, 0.7200822234153748, 267.0, -5.163846701224958, -1.4735689172006459, K330 Gyroscope sensor
1536635744062, 0.20231004059314728, 0.3016694188117981, 19.57439422607422, 0.40133845806121826, -0.4847215712070465, -0.12034045159816742, 52.345001220703125, -2.2699999809265137, 4.708000183105469, 284.0, -0.048850610852241516, -0.5809704065322876, 9.810775756835938, 0.2511606514453888, 0.8826398253440857, 9.763618469238281, 996.9600219726563, 0.040465157479047775, 0.02359148859977722, 0.7200822234153748, 267.0, -5.163846701224958, -1.4735689172006459, YAS532 Magnetic Sensor
1536635744063, 0.20231004059314728, 0.3016694188117981, 19.57439422607422, 0.2935207486152649, -0.5213735103607178, -0.12431107461452484, 52.345001220703125, -2.2699999809265137, 4.708000183105469, 284.0, -0.048850610852241516, -0.5809704065322876, 9.810775756835938, 0.2511606514453888, 0.8826398253440857, 9.763618469238281, 996.9600219726563, 0.040465157479047775, 0.02359148859977722, 0.7200822234153748, 267.0, -5.163846701224958, -1.4735689172006459, K330 Gyroscope sensor
1536635744072, 0.20231004059314728, 0.3016694188117981, 19.57439422607422, 0.021074850112199783, -0.499382346868515, -0.11850785464048386, 52.345001220703125, -2.2699999809265137, 4.708000183105469, 284.0, -0.048850610852241516, -0.5809704065322876, 9.810775756835938, 0.2511606514453888, 0.8826398253440857, 9.763618469238281, 996.9600219726563, 0.040465157479047775, 0.02359148859977722, 0.7200822234153748, 267.0, -5.163846701224958, -1.4735689172006459, K330 Gyroscope sensor
1536635744084, 0.20231004059314728, 0.3016694188117981, 19.57439422607422, 0.021074850112199783, -0.499382346868515, -0.11850785464048386, 52.6879997253418, -2.2699999809265137, 4.708000183105469, 284.0, -0.048850610852241516, -0.5809704065322876, 9.810775756835938, 0.2511606514453888, 0.8826398253440857, 9.763618469238281, 996.9600219726563, 0.040465157479047775, 0.02359148859977722, 0.7200822234153748, 267.0, -5.163846701224958, -1.4735689172006459, YAS532 Magnetic Sensor
1536635744084, 0.20231004059314728, 0.3016694188117981, 19.57439422607422, -0.2971859276294708, -0.43707409501075745, -0.1267545372247696, 52.6879997253418, -2.2699999809265137, 4.708000183105469, 284.0, -0.048850610852241516, -0.5809704065322876, 9.810775756835938, 0.2511606514453888, 0.8826398253440857, 9.763618469238281, 996.9600219726563, 0.040465157479047775, 0.02359148859977722, 0.7200822234153748, 267.0, -5.163846701224958, -1.4735689172006459, K330 Gyroscope sensor
1536635744090, 0.20231004059314728, 0.3016694188117981, 19.57439422607422, -0.5662720799446106, -0.4108068645000458, -0.15027284622192383, 52.6879997253418, -2.2699999809265137, 4.708000183105469, 284.0, -0.048850610852241516, -0.5809704065322876, 9.810775756835938, 0.2511606514453888, 0.8826398253440857, 9.763618469238281, 996.9600219726563, 0.040465157479047775, 0.02359148859977722, 0.7200822234153748, 267.0, -5.163846701224958, -1.4735689172006459, K330 Gyroscope sensor
1536635744104, 0.20231004059314728, 0.3016694188117981, 19.57439422607422, -0.5662720799446106, -0.4108068645000458, -0.15027284622192383, 52.6879997253418, -2.2699999809265137, 4.708000183105469, 284.0, -0.048850610852241516, -0.5809704065322876, 9.810775756835938, 0.2511606514453888, 0.8826398253440857, 9.763618469238281, 996.9600219726563, 0.040465157479047775, 0.02359148859977722, 0.7200822234153748, 267.0, -5.163846701224958, -1.4735689172006459, YAS532 Magnetic Sensor
1536635744105, 0.20231004059314728, 0.3016694188117981, 19.57439422607422, -0.7623597979545593, -0.40653082728385925, -0.16065755486488342, 52.6879997253418, -2.2699999809265137, 4.708000183105469, 284.0, -0.048850610852241516, -0.5809704065322876, 9.810775756835938, 0.2511606514453888, 0.8826398253440857, 9.763618469238281, 996.9600219726563, 0.040465157479047775, 0.02359148859977722, 0.7200822234153748, 267.0, -5.163846701224958, -1.4735689172006459, K330 Gyroscope sensor
1536635744108, 0.20231004059314728, 0.3016694188117981, 19.57439422607422, -0.8949176073074341, -0.3729332387447357, -0.14844025671482086, 52.6879997253418, -2.2699999809265137, 4.708000183105469, 284.0, -0.048850610852241516, -0.5809704065322876, 9.810775756835938, 0.2511606514453888, 0.8826398253440857, 9.763618469238281, 996.9600219726563, 0.040465157479047775, 0.02359148859977722, 0.7200822234153748, 267.0, -5.163846701224958, -1.4735689172006459, K330 Gyroscope sensor
1536635744125, 0.20231004059314728, 0.3016694188117981, 19.57439422607422, -0.8949176073074341, -0.3729332387447357, -0.14844025671482086, 52.6879997253418, -2.5769999027252197, 4.708000183105469, 284.0, -0.048850610852241516, -0.5809704065322876, 9.810775756835938, 0.2511606514453888, 0.8826398253440857, 9.763618469238281, 996.9600219726563, 0.040465157479047775, 0.02359148859977722, 0.7200822234153748, 267.0, -5.163846701224958, -1.4735689172006459, YAS532 Magnetic Sensor
1536635744126, 0.20231004059314728, 0.3016694188117981, 19.57439422607422, -0.9517280459403992, -0.30512720346450806, -0.08735372871160507, 52.6879997253418, -2.5769999027252197, 4.708000183105469, 284.0, -0.048850610852241516, -0.5809704065322876, 9.810775756835938, 0.2511606514453888, 0.8826398253440857, 9.763618469238281, 996.9600219726563, 0.040465157479047775, 0.02359148859977722, 0.7200822234153748, 267.0, -5.163846701224958, -1.4735689172006459, K330 Gyroscope sensor
1536635744128, 0.20231004059314728, 0.3016694188117981, 19.57439422607422, -0.9569203853607178, -0.192422553896904, -0.04245513305068016, 52.6879997253418, -2.5769999027252197, 4.708000183105469, 284.0, -0.048850610852241516, -0.5809704065322876, 9.810775756835938, 0.2511606514453888, 0.8826398253440857, 9.763618469238281, 996.9600219726563, 0.040465157479047775, 0.02359148859977722, 0.7200822234153748, 267.0, -5.163846701224958, -1.4735689172006459, K330 Gyroscope sensor
1536635744144, 0.20231004059314728, 0.3016694188117981, 19.57439422607422, -0.9569203853607178, -0.192422553896904, -0.04245513305068016, 52.6879997253418, -2.5769999027252197, 4.708000183105469, 284.0, -0.048850610852241516, -0.5809704065322876, 9.810775756835938, 0.2511606514453888, 0.8826398253440857, 9.763618469238281, 996.9600219726563, 0.040465157479047775, 0.02359148859977722, 0.7200822234153748, 267.0, -5.163846701224958, -1.4735689172006459, YAS532 Magnetic Sensor
1536635744145, 0.20231004059314728, 0.3016694188117981, 19.57439422607422, -0.9663888216018677, -0.10934487730264664, 0.010995574295520782, 52.6879997253418, -2.5769999027252197, 4.708000183105469, 284.0, -0.048850610852241516, -0.5809704065322876, 9.810775756835938, 0.2511606514453888, 0.8826398253440857, 9.763618469238281, 996.9600219726563, 0.040465157479047775, 0.02359148859977722, 0.7200822234153748, 267.0, -5.163846701224958, -1.4735689172006459, K330 Gyroscope sensor
1536635744149, 0.20231004059314728, 0.3016694188117981, 19.57439422607422, -0.998153805732727, 0.12797626852989197, -0.04948008432984352, 52.6879997253418, -2.5769999027252197, 4.708000183105469, 284.0, -0.048850610852241516, -0.5809704065322876, 9.810775756835938, 0.2511606514453888, 0.8826398253440857, 9.763618469238281, 996.9600219726563, 0.040465157479047775, 0.02359148859977722, 0.7200822234153748, 267.0, -5.163846701224958, -1.4735689172006459, K330 Gyroscope sensor
1536635744161, 0.20231004059314728, 0.3016694188117981, 19.57439422607422, -0.998153805732727, 0.12797626852989197, -0.04948008432984352, 52.6879997253418, -2.5769999027252197, 4.708000183105469, 284.0, -0.048850610852241516, -0.5809704065322876, 9.810775756835938, 0.2511606514453888, 0.8826398253440857, 9.763618469238281, 996.9600219726563, 0.040465157479047775, 0.02359148859977722, 0.7200822234153748, 267.0, -5.163846701224958, -1.4735689172006459, YAS532 Magnetic Sensor
1536635744162, 0.20231004059314728, 0.3016694188117981, 19.57439422607422, -1.0558805465698242, 0.4205807149410248, -0.26419922709465027, 52.6879997253418, -2.5769999027252197, 4.708000183105469, 284.0, -0.048850610852241516, -0.5809704065322876, 9.810775756835938, 0.2511606514453888, 0.8826398253440857, 9.763618469238281, 996.9600219726563, 0.040465157479047775, 0.02359148859977722, 0.7200822234153748, 267.0, -5.163846701224958, -1.4735689172006459, K330 Gyroscope sensor
1536635744172, 0.20231004059314728, 0.3016694188117981, 19.57439422607422, -1.1725558042526245, 0.5812382698059082, -0.6038402915000916, 52.6879997253418, -2.5769999027252197, 4.708000183105469, 284.0, -0.048850610852241516, -0.5809704065322876, 9.810775756835938, 0.2511606514453888, 0.8826398253440857, 9.763618469238281, 996.9600219726563, 0.040465157479047775, 0.02359148859977722, 0.7200822234153748, 267.0, -5.163846701224958, -1.4735689172006459, K330 Gyroscope sensor
1536635744188, -1.8501193523406982, -1.8279730081558228, 9.517550468444824, -1.1725558042526245, 0.5812382698059082, -0.6038402915000916, 52.6879997253418, -2.5769999027252197, 4.708000183105469, 284.0, -0.048850610852241516, -0.5809704065322876, 9.810775756835938, 0.2511606514453888, 0.8826398253440857, 9.763618469238281, 996.9600219726563, 0.040465157479047775, 0.02359148859977722, 0.7200822234153748, 267.0, -5.163846701224958, -1.4735689172006459, K330 3-axis Accelerometer
1536635744189, -1.8501193523406982, -1.8279730081558228, 9.517550468444824, -1.1725558042526245, 0.5812382698059082, -0.6038402915000916, 52.6879997253418, -2.5769999027252197, 4.708000183105469, 284.0, -0.048850610852241516, -0.5809704065322876, 9.810775756835938, -0.2723388671875, 0.09915971755981445, 9.802366256713867, 996.9600219726563, 0.040465157479047775, 0.02359148859977722, 0.7200822234153748, 267.0, -5.163846701224958, -1.4735689172006459, Gravity Sensor
1536635744190, -1.8501193523406982, -1.8279730081558228, 9.517550468444824, -1.1725558042526245, 0.5812382698059082, -0.6038402915000916, 52.6879997253418, -2.5769999027252197, 4.708000183105469, 284.0, -1.5777804851531982, -1.9271327257156372, -0.28481578826904297, -0.2723388671875, 0.09915971755981445, 9.802366256713867, 996.9600219726563, 0.040465157479047775, 0.02359148859977722, 0.7200822234153748, 267.0, -5.163846701224958, -1.4735689172006459, Linear Acceleration Sensor
1536635744191, -1.8501193523406982, -1.8279730081558228, 9.517550468444824, -1.1725558042526245, 0.5812382698059082, -0.6038402915000916, 52.6879997253418, -2.5769999027252197, 4.708000183105469, 284.0, -1.5777804851531982, -1.9271327257156372, -0.28481578826904297, -0.2723388671875, 0.09915971755981445, 9.802366256713867, 996.9600219726563, 0.0033026731107383966, 0.018312988802790642, 0.7237814664840698, 267.0, -1.7802042835728447, 1.174236944041895, Rotation Vector Sensor
1536635744194, -1.8501193523406982, -1.8279730081558228, 9.517550468444824, -1.1725558042526245, 0.5812382698059082, -0.6038402915000916, 52.6879997253418, -2.5769999027252197, 4.708000183105469, 284.0, -1.5777804851531982, -1.9271327257156372, -0.28481578826904297, -0.2723388671875, 0.09915971755981445, 9.802366256713867, 996.9600219726563, 0.0033026731107383966, 0.018312988802790642, 0.7237814664840698, 267.0, -1.7802042835728447, 1.174236944041895, Orientation Sensor
1536635744200, -1.8501193523406982, -1.8279730081558228, 9.517550468444824, -1.34115469455719, 0.451123982667923, -0.8881980776786804, 52.6879997253418, -2.5769999027252197, 4.708000183105469, 284.0, -1.5777804851531982, -1.9271327257156372, -0.28481578826904297, -0.2723388671875, 0.09915971755981445, 9.802366256713867, 996.9600219726563, 0.0033026731107383966, 0.018312988802790642, 0.7237814664840698, 267.0, -1.7802042835728447, 1.174236944041895, K330 Gyroscope sensor
1536635744202, -1.8501193523406982, -1.8279730081558228, 9.517550468444824, -1.34115469455719, 0.451123982667923, -0.8881980776786804, 52.6879997253418, -2.5769999027252197, 4.708000183105469, 284.0, -1.5777804851531982, -1.9271327257156372, -0.28481578826904297, -0.2723388671875, 0.09915971755981445, 9.802366256713867, 996.9600219726563, 0.0033026731107383966, 0.018312988802790642, 0.7237814664840698, 267.0, -1.7802042835728447, 1.174236944041895, YAS532 Magnetic Sensor
1536635744205, -1.8501193523406982, -1.8279730081558228, 9.517550468444824, -1.34115469455719, 0.451123982667923, -0.8881980776786804, 52.6879997253418, -2.5769999027252197, 4.708000183105469, 284.0, -1.5777804851531982, -1.9271327257156372, -0.28481578826904297, -0.2723388671875, 0.09915971755981445, 9.802366256713867, 996.9099731445313, 0.0033026731107383966, 0.018312988802790642, 0.7237814664840698, 267.0, -1.7802042835728447, 1.174236944041895, Barometer Sensor
1536635744208, -1.8501193523406982, -1.8279730081558228, 9.517550468444824, -1.34115469455719, 0.451123982667923, -0.8881980776786804, 52.6879997253418, -2.5769999027252197, 4.708000183105469, 292.0, -1.5777804851531982, -1.9271327257156372, -0.28481578826904297, -0.2723388671875, 0.09915971755981445, 9.802366256713867, 996.9099731445313, 0.0033026731107383966, 0.018312988802790642, 0.7237814664840698, 267.0, -1.7802042835728447, 1.174236944041895, CM3323 RGB Sensor
1536635744210, -1.8501193523406982, -1.8279730081558228, 9.517550468444824, -1.5094480514526367, 0.12828169763088226, -0.9282097220420837, 52.6879997253418, -2.5769999027252197, 4.708000183105469, 292.0, -1.5777804851531982, -1.9271327257156372, -0.28481578826904297, -0.2723388671875, 0.09915971755981445, 9.802366256713867, 996.9099731445313, 0.0033026731107383966, 0.018312988802790642, 0.7237814664840698, 267.0, -1.7802042835728447, 1.174236944041895, K330 Gyroscope sensor
1536635744212, -1.8501193523406982, -1.8279730081558228, 9.517550468444824, -1.5094480514526367, 0.12828169763088226, -0.9282097220420837, 52.6879997253418, -1.812000036239624, 3.0269999504089355, 292.0, -1.5777804851531982, -1.9271327257156372, -0.28481578826904297, -0.2723388671875, 0.09915971755981445, 9.802366256713867, 996.9099731445313, 0.0033026731107383966, 0.018312988802790642, 0.7237814664840698, 267.0, -1.7802042835728447, 1.174236944041895, YAS532 Magnetic Sensor
1536635744214, -1.8501193523406982, -1.8279730081558228, 9.517550468444824, -1.5906931161880493, -0.14569136500358582, -0.7312057018280029, 52.6879997253418, -1.812000036239624, 3.0269999504089355, 292.0, -1.5777804851531982, -1.9271327257156372, -0.28481578826904297, -0.2723388671875, 0.09915971755981445, 9.802366256713867, 996.9099731445313, 0.0033026731107383966, 0.018312988802790642, 0.7237814664840698, 267.0, -1.7802042835728447, 1.174236944041895, K330 Gyroscope sensor
1536635744216, -1.8501193523406982, -1.8279730081558228, 9.517550468444824, -1.5650367736816406, -0.2480112910270691, -0.5864306092262268, 52.6879997253418, -1.812000036239624, 3.0269999504089355, 292.0, -1.5777804851531982, -1.9271327257156372, -0.28481578826904297, -0.2723388671875, 0.09915971755981445, 9.802366256713867, 996.9099731445313, 0.0033026731107383966, 0.018312988802790642, 0.7237814664840698, 267.0, -1.7802042835728447, 1.174236944041895, K330 Gyroscope sensor
1536635744220, -1.8501193523406982, -1.8279730081558228, 9.517550468444824, -1.5650367736816406, -0.2480112910270691, -0.5864306092262268, 52.6879997253418, -0.0860000029206276, 1.9859999418258667, 292.0, -1.5777804851531982, -1.9271327257156372, -0.28481578826904297, -0.2723388671875, 0.09915971755981445, 9.802366256713867, 996.9099731445313, 0.0033026731107383966, 0.018312988802790642, 0.7237814664840698, 267.0, -1.7802042835728447, 1.174236944041895, YAS532 Magnetic Sensor
1536635744223, -1.8501193523406982, -1.8279730081558228, 9.517550468444824, -1.3539828062057495, -0.2382374405860901, -0.30115658044815063, 52.6879997253418, -0.0860000029206276, 1.9859999418258667, 292.0, -1.5777804851531982, -1.9271327257156372, -0.28481578826904297, -0.2723388671875, 0.09915971755981445, 9.802366256713867, 996.9099731445313, 0.0033026731107383966, 0.018312988802790642, 0.7237814664840698, 267.0, -1.7802042835728447, 1.174236944041895, K330 Gyroscope sensor
1536635744231, -1.8501193523406982, -1.8279730081558228, 9.517550468444824, -0.9685268402099609, -0.13439035415649414, -0.12186761945486069, 52.6879997253418, -0.0860000029206276, 1.9859999418258667, 292.0, -1.5777804851531982, -1.9271327257156372, -0.28481578826904297, -0.2723388671875, 0.09915971755981445, 9.802366256713867, 996.9099731445313, 0.0033026731107383966, 0.018312988802790642, 0.7237814664840698, 267.0, -1.7802042835728447, 1.174236944041895, K330 Gyroscope sensor
1536635744245, -1.8501193523406982, -1.8279730081558228, 9.517550468444824, -0.9685268402099609, -0.13439035415649414, -0.12186761945486069, 52.6879997253418, 0.45399999618530273, 1.475000023841858, 292.0, -1.5777804851531982, -1.9271327257156372, -0.28481578826904297, -0.2723388671875, 0.09915971755981445, 9.802366256713867, 996.9099731445313, 0.0033026731107383966, 0.018312988802790642, 0.7237814664840698, 267.0, -1.7802042835728447, 1.174236944041895, YAS532 Magnetic Sensor
1536635744249, -1.8501193523406982, -1.8279730081558228, 9.517550468444824, -0.44684791564941406, 0.020463986322283745, -0.05253441259264946, 52.6879997253418, 0.45399999618530273, 1.475000023841858, 292.0, -1.5777804851531982, -1.9271327257156372, -0.28481578826904297, -0.2723388671875, 0.09915971755981445, 9.802366256713867, 996.9099731445313, 0.0033026731107383966, 0.018312988802790642, 0.7237814664840698, 267.0, -1.7802042835728447, 1.174236944041895, K330 Gyroscope sensor
1536635744252, -1.8501193523406982, -1.8279730081558228, 9.517550468444824, 0.1508837193250656, 0.19975294172763824, -0.017409659922122955, 52.6879997253418, 0.45399999618530273, 1.475000023841858, 292.0, -1.5777804851531982, -1.9271327257156372, -0.28481578826904297, -0.2723388671875, 0.09915971755981445, 9.802366256713867, 996.9099731445313, 0.0033026731107383966, 0.018312988802790642, 0.7237814664840698, 267.0, -1.7802042835728447, 1.174236944041895, K330 Gyroscope sensor
1536635744262, -1.8501193523406982, -1.8279730081558228, 9.517550468444824, 0.1508837193250656, 0.19975294172763824, -0.017409659922122955, 52.6879997253418, -0.003000000026077032, 1.1150000095367432, 292.0, -1.5777804851531982, -1.9271327257156372, -0.28481578826904297, -0.2723388671875, 0.09915971755981445, 9.802366256713867, 996.9099731445313, 0.0033026731107383966, 0.018312988802790642, 0.7237814664840698, 267.0, -1.7802042835728447, 1.174236944041895, YAS532 Magnetic Sensor
1536635744263, -1.8501193523406982, -1.8279730081558228, 9.517550468444824, 0.6921103000640869, 0.32528573274612427, -0.014355333521962166, 52.6879997253418, -0.003000000026077032, 1.1150000095367432, 292.0, -1.5777804851531982, -1.9271327257156372, -0.28481578826904297, -0.2723388671875, 0.09915971755981445, 9.802366256713867, 996.9099731445313, 0.0033026731107383966, 0.018312988802790642, 0.7237814664840698, 267.0, -1.7802042835728447, 1.174236944041895, K330 Gyroscope sensor
1536635744270, -1.8501193523406982, -1.8279730081558228, 9.517550468444824, 1.036027431488037, 0.2681698501110077, -0.06994406878948212, 52.6879997253418, -0.003000000026077032, 1.1150000095367432, 292.0, -1.5777804851531982, -1.9271327257156372, -0.28481578826904297, -0.2723388671875, 0.09915971755981445, 9.802366256713867, 996.9099731445313, 0.0033026731107383966, 0.018312988802790642, 0.7237814664840698, 267.0, -1.7802042835728447, 1.174236944041895, K330 Gyroscope sensor
1536635744283, -1.8501193523406982, -1.8279730081558228, 9.517550468444824, 1.036027431488037, 0.2681698501110077, -0.06994406878948212, 52.6879997253418, -0.8050000071525574, 0.43700000643730164, 292.0, -1.5777804851531982, -1.9271327257156372, -0.28481578826904297, -0.2723388671875, 0.09915971755981445, 9.802366256713867, 996.9099731445313, 0.0033026731107383966, 0.018312988802790642, 0.7237814664840698, 267.0, -1.7802042835728447, 1.174236944041895, YAS532 Magnetic Sensor
1536635744284, -1.8501193523406982, -1.8279730081558228, 9.517550468444824, 1.0690141916275024, 0.01618792861700058, -0.1472185254096985, 52.6879997253418, -0.8050000071525574, 0.43700000643730164, 292.0, -1.5777804851531982, -1.9271327257156372, -0.28481578826904297, -0.2723388671875, 0.09915971755981445, 9.802366256713867, 996.9099731445313, 0.0033026731107383966, 0.018312988802790642, 0.7237814664840698, 267.0, -1.7802042835728447, 1.174236944041895, K330 Gyroscope sensor
1536635744293, -1.8501193523406982, -1.8279730081558228, 9.517550468444824, 0.9437867999076843, -0.23884831368923187, -0.18081611394882202, 52.6879997253418, -0.8050000071525574, 0.43700000643730164, 292.0, -1.5777804851531982, -1.9271327257156372, -0.28481578826904297, -0.2723388671875, 0.09915971755981445, 9.802366256713867, 996.9099731445313, 0.0033026731107383966, 0.018312988802790642, 0.7237814664840698, 267.0, -1.7802042835728447, 1.174236944041895, K330 Gyroscope sensor
1536635744300, -1.8501193523406982, -1.8279730081558228, 9.517550468444824, 0.9437867999076843, -0.23884831368923187, -0.18081611394882202, 52.32500076293945, -1.225000023841858, 0.43700000643730164, 292.0, -1.5777804851531982, -1.9271327257156372, -0.28481578826904297, -0.2723388671875, 0.09915971755981445, 9.802366256713867, 996.9099731445313, 0.0033026731107383966, 0.018312988802790642, 0.7237814664840698, 267.0, -1.7802042835728447, 1.174236944041895, YAS532 Magnetic Sensor
1536635744302, -1.8501193523406982, -1.8279730081558228, 9.517550468444824, 0.4688390791416168, -0.2886338233947754, -0.22815817594528198, 52.32500076293945, -1.225000023841858, 0.43700000643730164, 292.0, -1.5777804851531982, -1.9271327257156372, -0.28481578826904297, -0.2723388671875, 0.09915971755981445, 9.802366256713867, 996.9099731445313, 0.0033026731107383966, 0.018312988802790642, 0.7237814664840698, 267.0, -1.7802042835728447, 1.174236944041895, K330 Gyroscope sensor
1536635744308, -1.8501193523406982, -1.8279730081558228, 9.517550468444824, -0.023518312722444534, -0.17501288652420044, -0.19578230381011963, 52.32500076293945, -1.225000023841858, 0.43700000643730164, 292.0, -1.5777804851531982, -1.9271327257156372, -0.28481578826904297, -0.2723388671875, 0.09915971755981445, 9.802366256713867, 996.9099731445313, 0.0033026731107383966, 0.018312988802790642, 0.7237814664840698, 267.0, -1.7802042835728447, 1.174236944041895, K330 Gyroscope sensor
1536635744320, -1.8501193523406982, -1.8279730081558228, 9.517550468444824, -0.023518312722444534, -0.17501288652420044, -0.19578230381011963, 52.32500076293945, -1.225000023841858, 0.43700000643730164, 292.0, -1.5777804851531982, -1.9271327257156372, -0.28481578826904297, -0.2723388671875, 0.09915971755981445, 9.802366256713867, 996.9099731445313, 0.0033026731107383966, 0.018312988802790642, 0.7237814664840698, 267.0, -1.7802042835728447, 1.174236944041895, YAS532 Magnetic Sensor
1536635744322, -1.8501193523406982, -1.8279730081558228, 9.517550468444824, -0.2168571650981903, 0.11026117950677872, -0.07360926270484924, 52.32500076293945, -1.225000023841858, 0.43700000643730164, 292.0, -1.5777804851531982, -1.9271327257156372, -0.28481578826904297, -0.2723388671875, 0.09915971755981445, 9.802366256713867, 996.9099731445313, 0.0033026731107383966, 0.018312988802790642, 0.7237814664840698, 267.0, -1.7802042835728447, 1.174236944041895, K330 Gyroscope sensor
1536635744328, -1.8501193523406982, -1.8279730081558228, 9.517550468444824, -0.04459316283464432, 0.29657506942749023, 0.04398229718208313, 52.32500076293945, -1.225000023841858, 0.43700000643730164, 292.0, -1.5777804851531982, -1.9271327257156372, -0.28481578826904297, -0.2723388671875, 0.09915971755981445, 9.802366256713867, 996.9099731445313, 0.0033026731107383966, 0.018312988802790642, 0.7237814664840698, 267.0, -1.7802042835728447, 1.174236944041895, K330 Gyroscope sensor
1536635744340, -1.8501193523406982, -1.8279730081558228, 9.517550468444824, -0.04459316283464432, 0.29657506942749023, 0.04398229718208313, 52.32500076293945, -1.225000023841858, -0.06700000166893005, 292.0, -1.5777804851531982, -1.9271327257156372, -0.28481578826904297, -0.2723388671875, 0.09915971755981445, 9.802366256713867, 996.9099731445313, 0.0033026731107383966, 0.018312988802790642, 0.7237814664840698, 267.0, -1.7802042835728447, 1.174236944041895, YAS532 Magnetic Sensor
1536635744341, -1.8501193523406982, -1.8279730081558228, 9.517550468444824, 0.3234531581401825, 0.2623666226863861, 0.08979719132184982, 52.32500076293945, -1.225000023841858, -0.06700000166893005, 292.0, -1.5777804851531982, -1.9271327257156372, -0.28481578826904297, -0.2723388671875, 0.09915971755981445, 9.802366256713867, 996.9099731445313, 0.0033026731107383966, 0.018312988802790642, 0.7237814664840698, 267.0, -1.7802042835728447, 1.174236944041895, K330 Gyroscope sensor
1536635744348, -1.8501193523406982, -1.8279730081558228, 9.517550468444824, 0.6527095437049866, 0.12095131725072861, 0.08857546001672745, 52.32500076293945, -1.225000023841858, -0.06700000166893005, 292.0, -1.5777804851531982, -1.9271327257156372, -0.28481578826904297, -0.2723388671875, 0.09915971755981445, 9.802366256713867, 996.9099731445313, 0.0033026731107383966, 0.018312988802790642, 0.7237814664840698, 267.0, -1.7802042835728447, 1.174236944041895, K330 Gyroscope sensor
1536635744364, -0.4189853072166443, -0.12509703636169434, 1.3401544094085693, 0.6527095437049866, 0.12095131725072861, 0.08857546001672745, 52.32500076293945, -1.225000023841858, -0.06700000166893005, 292.0, -1.5777804851531982, -1.9271327257156372, -0.28481578826904297, -0.2723388671875, 0.09915971755981445, 9.802366256713867, 996.9099731445313, 0.0033026731107383966, 0.018312988802790642, 0.7237814664840698, 267.0, -1.7802042835728447, 1.174236944041895, K330 3-axis Accelerometer
1536635744366, -0.4189853072166443, -0.12509703636169434, 1.3401544094085693, 0.6527095437049866, 0.12095131725072861, 0.08857546001672745, 52.32500076293945, -1.225000023841858, -0.06700000166893005, 292.0, -1.5777804851531982, -1.9271327257156372, -0.28481578826904297, -0.3111843466758728, -0.015364222228527069, 9.8016996383667, 996.9099731445313, 0.0033026731107383966, 0.018312988802790642, 0.7237814664840698, 267.0, -1.7802042835728447, 1.174236944041895, Gravity Sensor
1536635744367, -0.4189853072166443, -0.12509703636169434, 1.3401544094085693, 0.6527095437049866, 0.12095131725072861, 0.08857546001672745, 52.32500076293945, -1.225000023841858, -0.06700000166893005, 292.0, -0.10780096054077148, -0.10973281413316727, -8.46154499053955, -0.3111843466758728, -0.015364222228527069, 9.8016996383667, 996.9099731445313, 0.0033026731107383966, 0.018312988802790642, 0.7237814664840698, 267.0, -1.7802042835728447, 1.174236944041895, Linear Acceleration Sensor
1536635744369, -0.4189853072166443, -0.12509703636169434, 1.3401544094085693, 0.6527095437049866, 0.12095131725072861, 0.08857546001672745, 52.32500076293945, -1.225000023841858, -0.06700000166893005, 292.0, -0.10780096054077148, -0.10973281413316727, -8.46154499053955, -0.3111843466758728, -0.015364222228527069, 9.8016996383667, 996.9099731445313, -0.016096338629722595, 0.00649844016879797, 0.7149184346199036, 268.0, 0.7569408804495595, 1.8396630012885098, Rotation Vector Sensor
1536635744371, -0.4189853072166443, -0.12509703636169434, 1.3401544094085693, 0.6527095437049866, 0.12095131725072861, 0.08857546001672745, 52.32500076293945, -1.225000023841858, -0.06700000166893005, 292.0, -0.10780096054077148, -0.10973281413316727, -8.46154499053955, -0.3111843466758728, -0.015364222228527069, 9.8016996383667, 996.9099731445313, -0.016096338629722595, 0.00649844016879797, 0.7149184346199036, 268.0, 0.7569408804495595, 1.8396630012885098, Orientation Sensor
1536635744375, -0.4189853072166443, -0.12509703636169434, 1.3401544094085693, 0.8210029006004333, -0.04337143152952194, 0.02474004216492176, 52.32500076293945, -1.225000023841858, -0.06700000166893005, 292.0, -0.10780096054077148, -0.10973281413316727, -8.46154499053955, -0.3111843466758728, -0.015364222228527069, 9.8016996383667, 996.9099731445313, -0.016096338629722595, 0.00649844016879797, 0.7149184346199036, 268.0, 0.7569408804495595, 1.8396630012885098, K330 Gyroscope sensor
1536635744376, -0.4189853072166443, -0.12509703636169434, 1.3401544094085693, 0.8210029006004333, -0.04337143152952194, 0.02474004216492176, 52.32500076293945, -1.7999999523162842, 0.574999988079071, 292.0, -0.10780096054077148, -0.10973281413316727, -8.46154499053955, -0.3111843466758728, -0.015364222228527069, 9.8016996383667, 996.9099731445313, -0.016096338629722595, 0.00649844016879797, 0.7149184346199036, 268.0, 0.7569408804495595, 1.8396630012885098, YAS532 Magnetic Sensor
1536635744379, -0.4189853072166443, -0.12509703636169434, 1.3401544094085693, 0.8210029006004333, -0.04337143152952194, 0.02474004216492176, 52.32500076293945, -1.7999999523162842, 0.574999988079071, 292.0, -0.10780096054077148, -0.10973281413316727, -8.46154499053955, -0.3111843466758728, -0.015364222228527069, 9.8016996383667, 996.8699951171875, -0.016096338629722595, 0.00649844016879797, 0.7149184346199036, 268.0, 0.7569408804495595, 1.8396630012885098, Barometer Sensor
1536635744382, -0.4189853072166443, -0.12509703636169434, 1.3401544094085693, 0.8210029006004333, -0.04337143152952194, 0.02474004216492176, 52.32500076293945, -1.7999999523162842, 0.574999988079071, 277.0, -0.10780096054077148, -0.10973281413316727, -8.46154499053955, -0.3111843466758728, -0.015364222228527069, 9.8016996383667, 996.8699951171875, -0.016096338629722595, 0.00649844016879797, 0.7149184346199036, 268.0, 0.7569408804495595, 1.8396630012885098, CM3323 RGB Sensor
1536635744383, -0.4189853072166443, -0.12509703636169434, 1.3401544094085693, 0.8448266386985779, -0.22327125072479248, -0.038179077208042145, 52.32500076293945, -1.7999999523162842, 0.574999988079071, 277.0, -0.10780096054077148, -0.10973281413316727, -8.46154499053955, -0.3111843466758728, -0.015364222228527069, 9.8016996383667, 996.8699951171875, -0.016096338629722595, 0.00649844016879797, 0.7149184346199036, 268.0, 0.7569408804495595, 1.8396630012885098, K330 Gyroscope sensor
1536635744385, -0.4189853072166443, -0.12509703636169434, 1.3401544094085693, 0.8448266386985779, -0.22327125072479248, -0.038179077208042145, 52.32500076293945, -2.2139999866485596, -0.32899999618530273, 277.0, -0.10780096054077148, -0.10973281413316727, -8.46154499053955, -0.3111843466758728, -0.015364222228527069, 9.8016996383667, 996.8699951171875, -0.016096338629722595, 0.00649844016879797, 0.7149184346199036, 268.0, 0.7569408804495595, 1.8396630012885098, YAS532 Magnetic Sensor
1536635744389, -0.4189853072166443, -0.12509703636169434, 1.3401544094085693, 0.8292495608329773, -0.2932153046131134, -0.15393804013729095, 52.32500076293945, -2.2139999866485596, -0.32899999618530273, 277.0, -0.10780096054077148, -0.10973281413316727, -8.46154499053955, -0.3111843466758728, -0.015364222228527069, 9.8016996383667, 996.8699951171875, -0.016096338629722595, 0.00649844016879797, 0.7149184346199036, 268.0, 0.7569408804495595, 1.8396630012885098, K330 Gyroscope sensor
1536635744391, -0.4189853072166443, -0.12509703636169434, 1.3401544094085693, 0.7965682744979858, -0.3396410644054413, -0.1560760736465454, 52.32500076293945, -2.2139999866485596, -0.32899999618530273, 277.0, -0.10780096054077148, -0.10973281413316727, -8.46154499053955, -0.3111843466758728, -0.015364222228527069, 9.8016996383667, 996.8699951171875, -0.016096338629722595, 0.00649844016879797, 0.7149184346199036, 268.0, 0.7569408804495595, 1.8396630012885098, K330 Gyroscope sensor
1536635744404, -0.4189853072166443, -0.12509703636169434, 1.3401544094085693, 0.7965682744979858, -0.3396410644054413, -0.1560760736465454, 51.93299865722656, -2.7230000495910645, 0.16599999368190765, 277.0, -0.10780096054077148, -0.10973281413316727, -8.46154499053955, -0.3111843466758728, -0.015364222228527069, 9.8016996383667, 996.8699951171875, -0.016096338629722595, 0.00649844016879797, 0.7149184346199036, 268.0, 0.7569408804495595, 1.8396630012885098, YAS532 Magnetic Sensor
1536635744406, -0.4189853072166443, -0.12509703636169434, 1.3401544094085693, 0.7666358947753906, -0.2718350291252136, -0.04917465150356293, 51.93299865722656, -2.7230000495910645, 0.16599999368190765, 277.0, -0.10780096054077148, -0.10973281413316727, -8.46154499053955, -0.3111843466758728, -0.015364222228527069, 9.8016996383667, 996.8699951171875, -0.016096338629722595, 0.00649844016879797, 0.7149184346199036, 268.0, 0.7569408804495595, 1.8396630012885098, K330 Gyroscope sensor
1536635744410, -0.4189853072166443, -0.12509703636169434, 1.3401544094085693, 0.7101308703422546, -0.11575896292924881, 0.10965031385421753, 51.93299865722656, -2.7230000495910645, 0.16599999368190765, 277.0, -0.10780096054077148, -0.10973281413316727, -8.46154499053955, -0.3111843466758728, -0.015364222228527069, 9.8016996383667, 996.8699951171875, -0.016096338629722595, 0.00649844016879797, 0.7149184346199036, 268.0, 0.7569408804495595, 1.8396630012885098, K330 Gyroscope sensor
1536635744424, -0.4189853072166443, -0.12509703636169434, 1.3401544094085693, 0.7101308703422546, -0.11575896292924881, 0.10965031385421753, 51.93299865722656, -3.125999927520752, 0.16599999368190765, 277.0, -0.10780096054077148, -0.10973281413316727, -8.46154499053955, -0.3111843466758728, -0.015364222228527069, 9.8016996383667, 996.8699951171875, -0.016096338629722595, 0.00649844016879797, 0.7149184346199036, 268.0, 0.7569408804495595, 1.8396630012885098, YAS532 Magnetic Sensor
1536635744426, -0.4189853072166443, -0.12509703636169434, 1.3401544094085693, 0.6203336715698242, 0.0907134860754013, 0.22479841113090515, 51.93299865722656, -3.125999927520752, 0.16599999368190765, 277.0, -0.10780096054077148, -0.10973281413316727, -8.46154499053955, -0.3111843466758728, -0.015364222228527069, 9.8016996383667, 996.8699951171875, -0.016096338629722595, 0.00649844016879797, 0.7149184346199036, 268.0, 0.7569408804495595, 1.8396630012885098, K330 Gyroscope sensor
1536635744429, -0.4189853072166443, -0.12509703636169434, 1.3401544094085693, 0.5577199459075928, 0.25473082065582275, 0.24068090319633484, 51.93299865722656, -3.125999927520752, 0.16599999368190765, 277.0, -0.10780096054077148, -0.10973281413316727, -8.46154499053955, -0.3111843466758728, -0.015364222228527069, 9.8016996383667, 996.8699951171875, -0.016096338629722595, 0.00649844016879797, 0.7149184346199036, 268.0, 0.7569408804495595, 1.8396630012885098, K330 Gyroscope sensor
1536635744443, -0.4189853072166443, -0.12509703636169434, 1.3401544094085693, 0.5577199459075928, 0.25473082065582275, 0.24068090319633484, 51.93299865722656, -3.494999885559082, 0.16599999368190765, 277.0, -0.10780096054077148, -0.10973281413316727, -8.46154499053955, -0.3111843466758728, -0.015364222228527069, 9.8016996383667, 996.8699951171875, -0.016096338629722595, 0.00649844016879797, 0.7149184346199036, 268.0, 0.7569408804495595, 1.8396630012885098, YAS532 Magnetic Sensor
1536635744445, -0.4189853072166443, -0.12509703636169434, 1.3401544094085693, 0.5861251950263977, 0.3170390725135803, 0.18325957655906677, 51.93299865722656, -3.494999885559082, 0.16599999368190765, 277.0, -0.10780096054077148, -0.10973281413316727, -8.46154499053955, -0.3111843466758728, -0.015364222228527069, 9.8016996383667, 996.8699951171875, -0.016096338629722595, 0.00649844016879797, 0.7149184346199036, 268.0, 0.7569408804495595, 1.8396630012885098, K330 Gyroscope sensor
1536635744449, -0.4189853072166443, -0.12509703636169434, 1.3401544094085693, 0.6340781450271606, 0.2483167201280594, 0.14905111491680145, 51.93299865722656, -3.494999885559082, 0.16599999368190765, 277.0, -0.10780096054077148, -0.10973281413316727, -8.46154499053955, -0.3111843466758728, -0.015364222228527069, 9.8016996383667, 996.8699951171875, -0.016096338629722595, 0.00649844016879797, 0.7149184346199036, 268.0, 0.7569408804495595, 1.8396630012885098, K330 Gyroscope sensor
1536635744464, -0.4189853072166443, -0.12509703636169434, 1.3401544094085693, 0.6340781450271606, 0.2483167201280594, 0.14905111491680145, 51.93299865722656, -4.283999919891357, 0.6190000176429749, 277.0, -0.10780096054077148, -0.10973281413316727, -8.46154499053955, -0.3111843466758728, -0.015364222228527069, 9.8016996383667, 996.8699951171875, -0.016096338629722595, 0.00649844016879797, 0.7149184346199036, 268.0, 0.7569408804495595, 1.8396630012885098, YAS532 Magnetic Sensor
1536635744466, -0.4189853072166443, -0.12509703636169434, 1.3401544094085693, 0.7449501752853394, 0.182648703455925, 0.10873401165008545, 51.93299865722656, -4.283999919891357, 0.6190000176429749, 277.0, -0.10780096054077148, -0.10973281413316727, -8.46154499053955, -0.3111843466758728, -0.015364222228527069, 9.8016996383667, 996.8699951171875, -0.016096338629722595, 0.00649844016879797, 0.7149184346199036, 268.0, 0.7569408804495595, 1.8396630012885098, K330 Gyroscope sensor
1536635744469, -0.4189853072166443, -0.12509703636169434, 1.3401544094085693, 0.8097018599510193, 0.06230825558304787, 0.12308934330940247, 51.93299865722656, -4.283999919891357, 0.6190000176429749, 277.0, -0.10780096054077148, -0.10973281413316727, -8.46154499053955, -0.3111843466758728, -0.015364222228527069, 9.8016996383667, 996.8699951171875, -0.016096338629722595, 0.00649844016879797, 0.7149184346199036, 268.0, 0.7569408804495595, 1.8396630012885098, K330 Gyroscope sensor
1536635744484, -0.4189853072166443, -0.12509703636169434, 1.3401544094085693, 0.8097018599510193, 0.06230825558304787, 0.12308934330940247, 51.93299865722656, -4.826000213623047, 0.6190000176429749, 277.0, -0.10780096054077148, -0.10973281413316727, -8.46154499053955, -0.3111843466758728, -0.015364222228527069, 9.8016996383667, 996.8699951171875, -0.016096338629722595, 0.00649844016879797, 0.7149184346199036, 268.0, 0.7569408804495595, 1.8396630012885098, YAS532 Magnetic Sensor
1536635744486, -0.4189853072166443, -0.12509703636169434, 1.3401544094085693, 0.806647539138794, 0.02015855349600315, 0.20830504596233368, 51.93299865722656, -4.826000213623047, 0.6190000176429749, 277.0, -0.10780096054077148, -0.10973281413316727, -8.46154499053955, -0.3111843466758728, -0.015364222228527069, 9.8016996383667, 996.8699951171875, -0.016096338629722595, 0.00649844016879797, 0.7149184346199036, 268.0, 0.7569408804495595, 1.8396630012885098, K330 Gyroscope sensor
1536635744489, -0.4189853072166443, -0.12509703636169434, 1.3401544094085693, 0.7324274182319641, 0.09346238523721695, 0.34697145223617554, 51.93299865722656, -4.826000213623047, 0.6190000176429749, 277.0, -0.10780096054077148, -0.10973281413316727, -8.46154499053955, -0.3111843466758728, -0.015364222228527069, 9.8016996383667, 996.8699951171875, -0.016096338629722595, 0.00649844016879797, 0.7149184346199036, 268.0, 0.7569408804495595, 1.8396630012885098, K330 Gyroscope sensor
1536635744503, -0.4189853072166443, -0.12509703636169434, 1.3401544094085693, 0.7324274182319641, 0.09346238523721695, 0.34697145223617554, 51.93299865722656, -5.24399995803833, 0.6190000176429749, 277.0, -0.10780096054077148, -0.10973281413316727, -8.46154499053955, -0.3111843466758728, -0.015364222228527069, 9.8016996383667, 996.8699951171875, -0.016096338629722595, 0.00649844016879797, 0.7149184346199036, 268.0, 0.7569408804495595, 1.8396630012885098, YAS532 Magnetic Sensor
1536635744505, -0.4189853072166443, -0.12509703636169434, 1.3401544094085693, 0.6414085030555725, 0.24342979490756989, 0.45784351229667664, 51.93299865722656, -5.24399995803833, 0.6190000176429749, 277.0, -0.10780096054077148, -0.10973281413316727, -8.46154499053955, -0.3111843466758728, -0.015364222228527069, 9.8016996383667, 996.8699951171875, -0.016096338629722595, 0.00649844016879797, 0.7149184346199036, 268.0, 0.7569408804495595, 1.8396630012885098, K330 Gyroscope sensor
1536635744510, -0.4189853072166443, -0.12509703636169434, 1.3401544094085693, 0.6236934065818787, 0.3576616048812866, 0.46211954951286316, 51.93299865722656, -5.24399995803833, 0.6190000176429749, 277.0, -0.10780096054077148, -0.10973281413316727, -8.46154499053955, -0.3111843466758728, -0.015364222228527069, 9.8016996383667, 996.8699951171875, -0.016096338629722595, 0.00649844016879797, 0.7149184346199036, 268.0, 0.7569408804495595, 1.8396630012885098, K330 Gyroscope sensor
1536635744524, -0.4189853072166443, -0.12509703636169434, 1.3401544094085693, 0.6236934065818787, 0.3576616048812866, 0.46211954951286316, 51.93299865722656, -5.751999855041504, 0.30799999833106995, 277.0, -0.10780096054077148, -0.10973281413316727, -8.46154499053955, -0.3111843466758728, -0.015364222228527069, 9.8016996383667, 996.8699951171875, -0.016096338629722595, 0.00649844016879797, 0.7149184346199036, 268.0, 0.7569408804495595, 1.8396630012885098, YAS532 Magnetic Sensor
1536635744526, -0.4189853072166443, -0.12509703636169434, 1.3401544094085693, 0.6801984310150146, 0.3549126982688904, 0.37262779474258423, 51.93299865722656, -5.751999855041504, 0.30799999833106995, 277.0, -0.10780096054077148, -0.10973281413316727, -8.46154499053955, -0.3111843466758728, -0.015364222228527069, 9.8016996383667, 996.8699951171875, -0.016096338629722595, 0.00649844016879797, 0.7149184346199036, 268.0, 0.7569408804495595, 1.8396630012885098, K330 Gyroscope sensor
1536635744529, -0.4189853072166443, -0.12509703636169434, 1.3401544094085693, 0.7226535677909851, 0.28435778617858887, 0.32498031854629517, 51.93299865722656, -5.751999855041504, 0.30799999833106995, 277.0, -0.10780096054077148, -0.10973281413316727, -8.46154499053955, -0.3111843466758728, -0.015364222228527069, 9.8016996383667, 996.8699951171875, -0.016096338629722595, 0.00649844016879797, 0.7149184346199036, 268.0, 0.7569408804495595, 1.8396630012885098, K330 Gyroscope sensor
1536635744549, -1.1348515748977661, 0.7481880187988281, 4.777629375457764, 0.7226535677909851, 0.28435778617858887, 0.32498031854629517, 51.93299865722656, -5.751999855041504, 0.30799999833106995, 277.0, -0.10780096054077148, -0.10973281413316727, -8.46154499053955, -0.3111843466758728, -0.015364222228527069, 9.8016996383667, 996.8699951171875, -0.016096338629722595, 0.00649844016879797, 0.7149184346199036, 268.0, 0.7569408804495595, 1.8396630012885098, K330 3-axis Accelerometer
1536635744553, -1.1348515748977661, 0.7481880187988281, 4.777629375457764, 0.7226535677909851, 0.28435778617858887, 0.32498031854629517, 51.93299865722656, -5.751999855041504, 0.30799999833106995, 277.0, -0.10780096054077148, -0.10973281413316727, -8.46154499053955, -0.4763941168785095, 1.2230675220489502, 9.718412399291992, 996.8699951171875, -0.016096338629722595, 0.00649844016879797, 0.7149184346199036, 268.0, 0.7569408804495595, 1.8396630012885098, Gravity Sensor
1536635744555, -1.1348515748977661, 0.7481880187988281, 4.777629375457764, 0.7226535677909851, 0.28435778617858887, 0.32498031854629517, 51.93299865722656, -5.751999855041504, 0.30799999833106995, 277.0, -0.6584574580192566, -0.47487950325012207, -4.9407830238342285, -0.4763941168785095, 1.2230675220489502, 9.718412399291992, 996.8699951171875, -0.016096338629722595, 0.00649844016879797, 0.7149184346199036, 268.0, 0.7569408804495595, 1.8396630012885098, Linear Acceleration Sensor
1536635744557, -1.1348515748977661, 0.7481880187988281, 4.777629375457764, 0.7226535677909851, 0.28435778617858887, 0.32498031854629517, 51.93299865722656, -5.751999855041504, 0.30799999833106995, 277.0, -0.6584574580192566, -0.47487950325012207, -4.9407830238342285, -0.4763941168785095, 1.2230675220489502, 9.718412399291992, 996.8699951171875, 0.020891869440674782, 0.055866338312625885, 0.7384057641029358, 264.0, -6.34821815189127, 2.548882310502542, Rotation Vector Sensor
1536635744559, -1.1348515748977661, 0.7481880187988281, 4.777629375457764, 0.7226535677909851, 0.28435778617858887, 0.32498031854629517, 51.93299865722656, -5.751999855041504, 0.30799999833106995, 277.0, -0.6584574580192566, -0.47487950325012207, -4.9407830238342285, -0.4763941168785095, 1.2230675220489502, 9.718412399291992, 996.8699951171875, 0.020891869440674782, 0.055866338312625885, 0.7384057641029358, 264.0, -6.34821815189127, 2.548882310502542, Orientation Sensor
1536635744562, -1.1348515748977661, 0.7481880187988281, 4.777629375457764, 0.7806857824325562, 0.2562579810619354, 0.29138273000717163, 51.93299865722656, -5.751999855041504, 0.30799999833106995, 277.0, -0.6584574580192566, -0.47487950325012207, -4.9407830238342285, -0.4763941168785095, 1.2230675220489502, 9.718412399291992, 996.8699951171875, 0.020891869440674782, 0.055866338312625885, 0.7384057641029358, 264.0, -6.34821815189127, 2.548882310502542, K330 Gyroscope sensor
1536635744564, -1.1348515748977661, 0.7481880187988281, 4.777629375457764, 0.7806857824325562, 0.2562579810619354, 0.29138273000717163, 51.93299865722656, -6.5, 0.30799999833106995, 277.0, -0.6584574580192566, -0.47487950325012207, -4.9407830238342285, -0.4763941168785095, 1.2230675220489502, 9.718412399291992, 996.8699951171875, 0.020891869440674782, 0.055866338312625885, 0.7384057641029358, 264.0, -6.34821815189127, 2.548882310502542, YAS532 Magnetic Sensor
1536635744566, -1.1348515748977661, 0.7481880187988281, 4.777629375457764, 0.7806857824325562, 0.2562579810619354, 0.29138273000717163, 51.93299865722656, -6.5, 0.30799999833106995, 277.0, -0.6584574580192566, -0.47487950325012207, -4.9407830238342285, -0.4763941168785095, 1.2230675220489502, 9.718412399291992, 996.9299926757813, 0.020891869440674782, 0.055866338312625885, 0.7384057641029358, 264.0, -6.34821815189127, 2.548882310502542, Barometer Sensor
1536635744569, -1.1348515748977661, 0.7481880187988281, 4.777629375457764, 0.7806857824325562, 0.2562579810619354, 0.29138273000717163, 51.93299865722656, -6.5, 0.30799999833106995, 251.0, -0.6584574580192566, -0.47487950325012207, -4.9407830238342285, -0.4763941168785095, 1.2230675220489502, 9.718412399291992, 996.9299926757813, 0.020891869440674782, 0.055866338312625885, 0.7384057641029358, 264.0, -6.34821815189127, 2.548882310502542, CM3323 RGB Sensor
1536635744571, -1.1348515748977661, 0.7481880187988281, 4.777629375457764, 0.7440338730812073, 0.27458393573760986, 0.35552358627319336, 51.93299865722656, -6.5, 0.30799999833106995, 251.0, -0.6584574580192566, -0.47487950325012207, -4.9407830238342285, -0.4763941168785095, 1.2230675220489502, 9.718412399291992, 996.9299926757813, 0.020891869440674782, 0.055866338312625885, 0.7384057641029358, 264.0, -6.34821815189127, 2.548882310502542, K330 Gyroscope sensor
1536635744573, -1.1348515748977661, 0.7481880187988281, 4.777629375457764, 0.7440338730812073, 0.27458393573760986, 0.35552358627319336, 51.93299865722656, -6.5, 0.6169999837875366, 251.0, -0.6584574580192566, -0.47487950325012207, -4.9407830238342285, -0.4763941168785095, 1.2230675220489502, 9.718412399291992, 996.9299926757813, 0.020891869440674782, 0.055866338312625885, 0.7384057641029358, 264.0, -6.34821815189127, 2.548882310502542, YAS532 Magnetic Sensor
1536635744575, -1.1348515748977661, 0.7481880187988281, 4.777629375457764, 0.6499606370925903, 0.3738495409488678, 0.4590652287006378, 51.93299865722656, -6.5, 0.6169999837875366, 251.0, -0.6584574580192566, -0.47487950325012207, -4.9407830238342285, -0.4763941168785095, 1.2230675220489502, 9.718412399291992, 996.9299926757813, 0.020891869440674782, 0.055866338312625885, 0.7384057641029358, 264.0, -6.34821815189127, 2.548882310502542, K330 Gyroscope sensor
1536635744577, -1.1348515748977661, 0.7481880187988281, 4.777629375457764, 0.580016553401947, 0.40286561846733093, 0.5390886068344116, 51.93299865722656, -6.5, 0.6169999837875366, 251.0, -0.6584574580192566, -0.47487950325012207, -4.9407830238342285, -0.4763941168785095, 1.2230675220489502, 9.718412399291992, 996.9299926757813, 0.020891869440674782, 0.055866338312625885, 0.7384057641029358, 264.0, -6.34821815189127, 2.548882310502542, K330 Gyroscope sensor
1536635744581, -1.1348515748977661, 0.7481880187988281, 4.777629375457764, 0.580016553401947, 0.40286561846733093, 0.5390886068344116, 52.262001037597656, -6.5, 1.7799999713897705, 251.0, -0.6584574580192566, -0.47487950325012207, -4.9407830238342285, -0.4763941168785095, 1.2230675220489502, 9.718412399291992, 996.9299926757813, 0.020891869440674782, 0.055866338312625885, 0.7384057641029358, 264.0, -6.34821815189127, 2.548882310502542, YAS532 Magnetic Sensor
1536635744583, -1.1348515748977661, 0.7481880187988281, 4.777629375457764, 0.5968153476715088, 0.21502456068992615, 0.5461135506629944, 52.262001037597656, -6.5, 1.7799999713897705, 251.0, -0.6584574580192566, -0.47487950325012207, -4.9407830238342285, -0.4763941168785095, 1.2230675220489502, 9.718412399291992, 996.9299926757813, 0.020891869440674782, 0.055866338312625885, 0.7384057641029358, 264.0, -6.34821815189127, 2.548882310502542, K330 Gyroscope sensor
1536635744592, -1.1348515748977661, 0.7481880187988281, 4.777629375457764, 0.6081163287162781, -0.24678955972194672, 0.45875978469848633, 52.262001037597656, -6.5, 1.7799999713897705, 251.0, -0.6584574580192566, -0.47487950325012207, -4.9407830238342285, -0.4763941168785095, 1.2230675220489502, 9.718412399291992, 996.9299926757813, 0.020891869440674782, 0.055866338312625885, 0.7384057641029358, 264.0, -6.34821815189127, 2.548882310502542, K330 Gyroscope sensor
1536635744605, -1.1348515748977661, 0.7481880187988281, 4.777629375457764, 0.6081163287162781, -0.24678955972194672, 0.45875978469848633, 52.262001037597656, -7.039999961853027, 2.5309998989105225, 251.0, -0.6584574580192566, -0.47487950325012207, -4.9407830238342285, -0.4763941168785095, 1.2230675220489502, 9.718412399291992, 996.9299926757813, 0.020891869440674782, 0.055866338312625885, 0.7384057641029358, 264.0, -6.34821815189127, 2.548882310502542, YAS532 Magnetic Sensor
1536635744606, -1.1348515748977661, 0.7481880187988281, 4.777629375457764, 0.44593164324760437, -0.7922922372817993, 0.3530801236629486, 52.262001037597656, -7.039999961853027, 2.5309998989105225, 251.0, -0.6584574580192566, -0.47487950325012207, -4.9407830238342285, -0.4763941168785095, 1.2230675220489502, 9.718412399291992, 996.9299926757813, 0.020891869440674782, 0.055866338312625885, 0.7384057641029358, 264.0, -6.34821815189127, 2.548882310502542, K330 Gyroscope sensor
1536635744609, -1.1348515748977661, 0.7481880187988281, 4.777629375457764, 0.29626965522766113, -1.0589349269866943, 0.3292563557624817, 52.262001037597656, -7.039999961853027, 2.5309998989105225, 251.0, -0.6584574580192566, -0.47487950325012207, -4.9407830238342285, -0.4763941168785095, 1.2230675220489502, 9.718412399291992, 996.9299926757813, 0.020891869440674782, 0.055866338312625885, 0.7384057641029358, 264.0, -6.34821815189127, 2.548882310502542, K330 Gyroscope sensor
1536635744624, -1.1348515748977661, 0.7481880187988281, 4.777629375457764, 0.29626965522766113, -1.0589349269866943, 0.3292563557624817, 52.262001037597656, -6.633999824523926, 3.565000057220459, 251.0, -0.6584574580192566, -0.47487950325012207, -4.9407830238342285, -0.4763941168785095, 1.2230675220489502, 9.718412399291992, 996.9299926757813, 0.020891869440674782, 0.055866338312625885, 0.7384057641029358, 264.0, -6.34821815189127, 2.548882310502542, YAS532 Magnetic Sensor
1536635744627, -1.1348515748977661, 0.7481880187988281, 4.777629375457764, -0.008246680721640587, -1.0018190145492554, 0.35063666105270386, 52.262001037597656, -6.633999824523926, 3.565000057220459, 251.0, -0.6584574580192566, -0.47487950325012207, -4.9407830238342285, -0.4763941168785095, 1.2230675220489502, 9.718412399291992, 996.9299926757813, 0.020891869440674782, 0.055866338312625885, 0.7384057641029358, 264.0, -6.34821815189127, 2.548882310502542, K330 Gyroscope sensor
1536635744630, -1.1348515748977661, 0.7481880187988281, 4.777629375457764, -0.03848451003432274, -0.5167919993400574, 0.37079519033432007, 52.262001037597656, -6.633999824523926, 3.565000057220459, 251.0, -0.6584574580192566, -0.47487950325012207, -4.9407830238342285, -0.4763941168785095, 1.2230675220489502, 9.718412399291992, 996.9299926757813, 0.020891869440674782, 0.055866338312625885, 0.7384057641029358, 264.0, -6.34821815189127, 2.548882310502542, K330 Gyroscope sensor
1536635744644, -1.1348515748977661, 0.7481880187988281, 4.777629375457764, -0.03848451003432274, -0.5167919993400574, 0.37079519033432007, 52.262001037597656, -6.941999912261963, 3.565000057220459, 251.0, -0.6584574580192566, -0.47487950325012207, -4.9407830238342285, -0.4763941168785095, 1.2230675220489502, 9.718412399291992, 996.9299926757813, 0.020891869440674782, 0.055866338312625885, 0.7384057641029358, 264.0, -6.34821815189127, 2.548882310502542, YAS532 Magnetic Sensor
1536635744648, -1.1348515748977661, 0.7481880187988281, 4.777629375457764, 0.3176499307155609, 0.11667526513338089, 0.34513887763023376, 52.262001037597656, -6.941999912261963, 3.565000057220459, 251.0, -0.6584574580192566, -0.47487950325012207, -4.9407830238342285, -0.4763941168785095, 1.2230675220489502, 9.718412399291992, 996.9299926757813, 0.020891869440674782, 0.055866338312625885, 0.7384057641029358, 264.0, -6.34821815189127, 2.548882310502542, K330 Gyroscope sensor
1536635744650, -1.1348515748977661, 0.7481880187988281, 4.777629375457764, 0.6524040699005127, 0.37690386176109314, 0.2941316068172455, 52.262001037597656, -6.941999912261963, 3.565000057220459, 251.0, -0.6584574580192566, -0.47487950325012207, -4.9407830238342285, -0.4763941168785095, 1.2230675220489502, 9.718412399291992, 996.9299926757813, 0.020891869440674782, 0.055866338312625885, 0.7384057641029358, 264.0, -6.34821815189127, 2.548882310502542, K330 Gyroscope sensor
1536635744665, -1.1348515748977661, 0.7481880187988281, 4.777629375457764, 0.6524040699005127, 0.37690386176109314, 0.2941316068172455, 52.262001037597656, -6.941999912261963, 5.086999893188477, 251.0, -0.6584574580192566, -0.47487950325012207, -4.9407830238342285, -0.4763941168785095, 1.2230675220489502, 9.718412399291992, 996.9299926757813, 0.020891869440674782, 0.055866338312625885, 0.7384057641029358, 264.0, -6.34821815189127, 2.548882310502542, YAS532 Magnetic Sensor
1536635744667, -1.1348515748977661, 0.7481880187988281, 4.777629375457764, 0.4951062798500061, 0.22388210892677307, 0.2028072625398636, 52.262001037597656, -6.941999912261963, 5.086999893188477, 251.0, -0.6584574580192566, -0.47487950325012207, -4.9407830238342285, -0.4763941168785095, 1.2230675220489502, 9.718412399291992, 996.9299926757813, 0.020891869440674782, 0.055866338312625885, 0.7384057641029358, 264.0, -6.34821815189127, 2.548882310502542, K330 Gyroscope sensor
1536635744670, -1.1348515748977661, 0.7481880187988281, 4.777629375457764, -0.11331550031900406, 0.08277224004268646, 0.07391469180583954, 52.262001037597656, -6.941999912261963, 5.086999893188477, 251.0, -0.6584574580192566, -0.47487950325012207, -4.9407830238342285, -0.4763941168785095, 1.2230675220489502, 9.718412399291992, 996.9299926757813, 0.020891869440674782, 0.055866338312625885, 0.7384057641029358, 264.0, -6.34821815189127, 2.548882310502542, K330 Gyroscope sensor
1536635744684, -1.1348515748977661, 0.7481880187988281, 4.777629375457764, -0.11331550031900406, 0.08277224004268646, 0.07391469180583954, 52.262001037597656, -6.38100004196167, 4.5980000495910645, 251.0, -0.6584574580192566, -0.47487950325012207, -4.9407830238342285, -0.4763941168785095, 1.2230675220489502, 9.718412399291992, 996.9299926757813, 0.020891869440674782, 0.055866338312625885, 0.7384057641029358, 264.0, -6.34821815189127, 2.548882310502542, YAS532 Magnetic Sensor
1536635744686, -1.1348515748977661, 0.7481880187988281, 4.777629375457764, -0.6890559792518616, 0.22968533635139465, -0.05192354694008827, 52.262001037597656, -6.38100004196167, 4.5980000495910645, 251.0, -0.6584574580192566, -0.47487950325012207, -4.9407830238342285, -0.4763941168785095, 1.2230675220489502, 9.718412399291992, 996.9299926757813, 0.020891869440674782, 0.055866338312625885, 0.7384057641029358, 264.0, -6.34821815189127, 2.548882310502542, K330 Gyroscope sensor
1536635744689, -1.1348515748977661, 0.7481880187988281, 4.777629375457764, -0.8323038816452026, 0.5925393104553223, -0.10842858254909515, 52.262001037597656, -6.38100004196167, 4.5980000495910645, 251.0, -0.6584574580192566, -0.47487950325012207, -4.9407830238342285, -0.4763941168785095, 1.2230675220489502, 9.718412399291992, 996.9299926757813, 0.020891869440674782, 0.055866338312625885, 0.7384057641029358, 264.0, -6.34821815189127, 2.548882310502542, K330 Gyroscope sensor
1536635744704, -1.1348515748977661, 0.7481880187988281, 4.777629375457764, -0.8323038816452026, 0.5925393104553223, -0.10842858254909515, 52.61000061035156, -6.0269999504089355, 4.5980000495910645, 251.0, -0.6584574580192566, -0.47487950325012207, -4.9407830238342285, -0.4763941168785095, 1.2230675220489502, 9.718412399291992, 996.9299926757813, 0.020891869440674782, 0.055866338312625885, 0.7384057641029358, 264.0, -6.34821815189127, 2.548882310502542, YAS532 Magnetic Sensor
1536635744706, -1.1348515748977661, 0.7481880187988281, 4.777629375457764, -0.7443392872810364, 0.7455610036849976, -0.22602014243602753, 52.61000061035156, -6.0269999504089355, 4.5980000495910645, 251.0, -0.6584574580192566, -0.47487950325012207, -4.9407830238342285, -0.4763941168785095, 1.2230675220489502, 9.718412399291992, 996.9299926757813, 0.020891869440674782, 0.055866338312625885, 0.7384057641029358, 264.0, -6.34821815189127, 2.548882310502542, K330 Gyroscope sensor
1536635744710, -1.1348515748977661, 0.7481880187988281, 4.777629375457764, -0.2330450862646103, 0.8023715019226074, -0.32986724376678467, 52.61000061035156, -6.0269999504089355, 4.5980000495910645, 251.0, -0.6584574580192566, -0.47487950325012207, -4.9407830238342285, -0.4763941168785095, 1.2230675220489502, 9.718412399291992, 996.9299926757813, 0.020891869440674782, 0.055866338312625885, 0.7384057641029358, 264.0, -6.34821815189127, 2.548882310502542, K330 Gyroscope sensor
1536635744729, 0.5045779943466187, 5.877166748046875, 18.94831085205078, -0.2330450862646103, 0.8023715019226074, -0.32986724376678467, 52.61000061035156, -6.0269999504089355, 4.5980000495910645, 251.0, -0.6584574580192566, -0.47487950325012207, -4.9407830238342285, -0.4763941168785095, 1.2230675220489502, 9.718412399291992, 996.9299926757813, 0.020891869440674782, 0.055866338312625885, 0.7384057641029358, 264.0, -6.34821815189127, 2.548882310502542, K330 3-axis Accelerometer
1536635744730, 0.5045779943466187, 5.877166748046875, 18.94831085205078, -0.2330450862646103, 0.8023715019226074, -0.32986724376678467, 52.61000061035156, -6.0269999504089355, 4.5980000495910645, 251.0, -0.6584574580192566, -0.47487950325012207, -4.9407830238342285, -0.5719420313835144, 1.4332730770111084, 9.68447208404541, 996.9299926757813, 0.020891869440674782, 0.055866338312625885, 0.7384057641029358, 264.0, -6.34821815189127, 2.548882310502542, Gravity Sensor
1536635744734, 0.5045779943466187, 5.877166748046875, 18.94831085205078, -0.2330450862646103, 0.8023715019226074, -0.32986724376678467, 52.61000061035156, -6.0269999504089355, 4.5980000495910645, 251.0, 1.0765199661254883, 4.4438934326171875, 9.263838768005371, -0.5719420313835144, 1.4332730770111084, 9.68447208404541, 996.9299926757813, 0.020891869440674782, 0.055866338312625885, 0.7384057641029358, 264.0, -6.34821815189127, 2.548882310502542, Linear Acceleration Sensor
1536635744735, 0.5045779943466187, 5.877166748046875, 18.94831085205078, -0.2330450862646103, 0.8023715019226074, -0.32986724376678467, 52.61000061035156, -6.0269999504089355, 4.5980000495910645, 251.0, 1.0765199661254883, 4.4438934326171875, 9.263838768005371, -0.5719420313835144, 1.4332730770111084, 9.68447208404541, 996.9299926757813, 0.028895702213048935, 0.06971341371536255, 0.7482085227966309, 262.0, -8.187558640184909, 2.818106169469642, Rotation Vector Sensor
1536635744737, 0.5045779943466187, 5.877166748046875, 18.94831085205078, -0.2330450862646103, 0.8023715019226074, -0.32986724376678467, 52.61000061035156, -6.0269999504089355, 4.5980000495910645, 251.0, 1.0765199661254883, 4.4438934326171875, 9.263838768005371, -0.5719420313835144, 1.4332730770111084, 9.68447208404541, 996.9299926757813, 0.028895702213048935, 0.06971341371536255, 0.7482085227966309, 262.0, -8.187558640184909, 2.818106169469642, Orientation Sensor
1536635744740, 0.5045779943466187, 5.877166748046875, 18.94831085205078, 0.26542094349861145, 0.475253164768219, -0.3741549551486969, 52.61000061035156, -6.0269999504089355, 4.5980000495910645, 251.0, 1.0765199661254883, 4.4438934326171875, 9.263838768005371, -0.5719420313835144, 1.4332730770111084, 9.68447208404541, 996.9299926757813, 0.028895702213048935, 0.06971341371536255, 0.7482085227966309, 262.0, -8.187558640184909, 2.818106169469642, K330 Gyroscope sensor
1536635744742, 0.5045779943466187, 5.877166748046875, 18.94831085205078, 0.26542094349861145, 0.475253164768219, -0.3741549551486969, 52.61000061035156, -6.0269999504089355, 4.5980000495910645, 251.0, 1.0765199661254883, 4.4438934326171875, 9.263838768005371, -0.5719420313835144, 1.4332730770111084, 9.68447208404541, 996.9299926757813, 0.028895702213048935, 0.06971341371536255, 0.7482085227966309, 262.0, -8.187558640184909, 2.818106169469642, YAS532 Magnetic Sensor
1536635744745, 0.5045779943466187, 5.877166748046875, 18.94831085205078, 0.26542094349861145, 0.475253164768219, -0.3741549551486969, 52.61000061035156, -6.0269999504089355, 4.5980000495910645, 251.0, 1.0765199661254883, 4.4438934326171875, 9.263838768005371, -0.5719420313835144, 1.4332730770111084, 9.68447208404541, 996.9400024414063, 0.028895702213048935, 0.06971341371536255, 0.7482085227966309, 262.0, -8.187558640184909, 2.818106169469642, Barometer Sensor
1536635744746, 0.5045779943466187, 5.877166748046875, 18.94831085205078, 0.26542094349861145, 0.475253164768219, -0.3741549551486969, 52.61000061035156, -6.0269999504089355, 4.5980000495910645, 286.0, 1.0765199661254883, 4.4438934326171875, 9.263838768005371, -0.5719420313835144, 1.4332730770111084, 9.68447208404541, 996.9400024414063, 0.028895702213048935, 0.06971341371536255, 0.7482085227966309, 262.0, -8.187558640184909, 2.818106169469642, CM3323 RGB Sensor
1536635744749, 0.5045779943466187, 5.877166748046875, 18.94831085205078, 0.26419922709465027, -0.03787364438176155, -0.3799581825733185, 52.61000061035156, -6.0269999504089355, 4.5980000495910645, 286.0, 1.0765199661254883, 4.4438934326171875, 9.263838768005371, -0.5719420313835144, 1.4332730770111084, 9.68447208404541, 996.9400024414063, 0.028895702213048935, 0.06971341371536255, 0.7482085227966309, 262.0, -8.187558640184909, 2.818106169469642, K330 Gyroscope sensor
1536635744751, 0.5045779943466187, 5.877166748046875, 18.94831085205078, 0.26419922709465027, -0.03787364438176155, -0.3799581825733185, 52.61000061035156, -6.0269999504089355, 5.419000148773193, 286.0, 1.0765199661254883, 4.4438934326171875, 9.263838768005371, -0.5719420313835144, 1.4332730770111084, 9.68447208404541, 996.9400024414063, 0.028895702213048935, 0.06971341371536255, 0.7482085227966309, 262.0, -8.187558640184909, 2.818106169469642, YAS532 Magnetic Sensor
1536635744753, 0.5045779943466187, 5.877166748046875, 18.94831085205078, -0.19822576642036438, -0.38759398460388184, -0.40103304386138916, 52.61000061035156, -6.0269999504089355, 5.419000148773193, 286.0, 1.0765199661254883, 4.4438934326171875, 9.263838768005371, -0.5719420313835144, 1.4332730770111084, 9.68447208404541, 996.9400024414063, 0.028895702213048935, 0.06971341371536255, 0.7482085227966309, 262.0, -8.187558640184909, 2.818106169469642, K330 Gyroscope sensor
1536635744755, 0.5045779943466187, 5.877166748046875, 18.94831085205078, -0.8521569967269897, -0.4645630121231079, -0.44226643443107605, 52.61000061035156, -6.0269999504089355, 5.419000148773193, 286.0, 1.0765199661254883, 4.4438934326171875, 9.263838768005371, -0.5719420313835144, 1.4332730770111084, 9.68447208404541, 996.9400024414063, 0.028895702213048935, 0.06971341371536255, 0.7482085227966309, 262.0, -8.187558640184909, 2.818106169469642, K330 Gyroscope sensor
