timestamp, acc_x, acc_y, acc_z, gyro_x, gyro_y, gyro_z, mag_x, mag_y, mag_z, light, la_x, la_y, la_z, gravity_x, gravity_y, gravity_z, pressure, rot_x, rot_y, rot_z, azimuth, pitch, roll, sensor_change
1551585040730, 0.4390869140625, 1.6807098388671875, 9.566482543945312, 0.0233612060546875, 0.0424041748046875, 0.027801513671875, -340.13671875, -43.8201904296875, -23.9990234375, 75.42799377441406, 0.036246538162231445, -0.031607985496520996, -0.05858421325683594, 0.6009380221366882, 1.6566600799560547, 9.650412559509277, 994.96484375, 0.03726816177368164, -0.0816478580236435, -0.7109655141830444, 90.0, -9.676492067923498, -3.5420515799776338, android.sensor.light
1551585040742, 0.3435821533203125, 0.9820098876953125, 9.62969970703125, 0.0233612060546875, 0.0424041748046875, 0.027801513671875, -340.13671875, -43.8201904296875, -23.9990234375, 75.42799377441406, 0.036246538162231445, -0.031607985496520996, -0.05858421325683594, 0.6009380221366882, 1.6566600799560547, 9.650412559509277, 994.96484375, 0.03726816177368164, -0.0816478580236435, -0.7109655141830444, 90.0, -9.676492067923498, -3.5420515799776338, android.sensor.accelerometer
1551585040745, 0.3435821533203125, 0.9820098876953125, 9.62969970703125, 0.0233612060546875, 0.0424041748046875, 0.027801513671875, -340.13671875, -43.8201904296875, -23.9990234375, 75.42799377441406, 0.036246538162231445, -0.031607985496520996, -0.05858421325683594, 0.6009380221366882, 1.6566600799560547, 9.650412559509277, 994.89501953125, 0.03726816177368164, -0.0816478580236435, -0.7109655141830444, 90.0, -9.676492067923498, -3.5420515799776338, android.sensor.pressure
1551585040816, 0.3435821533203125, 0.9820098876953125, 9.62969970703125, 0.0233612060546875, 0.0424041748046875, 0.027801513671875, -346.76666259765625, -22.30987548828125, 32.19146728515625, 75.42799377441406, 0.036246538162231445, -0.031607985496520996, -0.05858421325683594, 0.6009380221366882, 1.6566600799560547, 9.650412559509277, 994.89501953125, 0.03726816177368164, -0.0816478580236435, -0.7109655141830444, 90.0, -9.676492067923498, -3.5420515799776338, android.sensor.magnetic_field
1551585040833, 0.3435821533203125, 0.9820098876953125, 9.62969970703125, 0.0233612060546875, 0.0424041748046875, 0.027801513671875, -346.76666259765625, -22.30987548828125, 32.19146728515625, 79.66499328613281, 0.036246538162231445, -0.031607985496520996, -0.05858421325683594, 0.6009380221366882, 1.6566600799560547, 9.650412559509277, 994.89501953125, 0.03726816177368164, -0.0816478580236435, -0.7109655141830444, 90.0, -9.676492067923498, -3.5420515799776338, android.sensor.light
1551585040835, 0.3435821533203125, 0.9820098876953125, 9.62969970703125, -0.0876312255859375, 0.0899200439453125, -0.034912109375, -346.76666259765625, -22.30987548828125, 32.19146728515625, 79.66499328613281, 0.036246538162231445, -0.031607985496520996, -0.05858421325683594, 0.6009380221366882, 1.6566600799560547, 9.650412559509277, 994.89501953125, 0.03726816177368164, -0.0816478580236435, -0.7109655141830444, 90.0, -9.676492067923498, -3.5420515799776338, android.sensor.gyroscope
1551585040840, 0.457244873046875, 0.9105224609375, 9.829010009765625, -0.0876312255859375, 0.0899200439453125, -0.034912109375, -346.76666259765625, -22.30987548828125, 32.19146728515625, 79.66499328613281, 0.036246538162231445, -0.031607985496520996, -0.05858421325683594, 0.6009380221366882, 1.6566600799560547, 9.650412559509277, 994.89501953125, 0.03726816177368164, -0.0816478580236435, -0.7109655141830444, 90.0, -9.676492067923498, -3.5420515799776338, android.sensor.accelerometer
1551585040845, 0.457244873046875, 0.9105224609375, 9.829010009765625, -0.0876312255859375, 0.0899200439453125, -0.034912109375, -346.76666259765625, -22.30987548828125, 32.19146728515625, 79.66499328613281, 0.036246538162231445, -0.031607985496520996, -0.05858421325683594, 0.6009380221366882, 1.6566600799560547, 9.650412559509277, 994.89501953125, 0.03726816177368164, -0.0816478580236435, -0.7109655141830444, 90.0, -9.676492067923498, -3.5420515799776338, android.sensor.pressure
1551585040913, 0.457244873046875, 0.9105224609375, 9.829010009765625, -0.0876312255859375, 0.0899200439453125, -0.034912109375, -347.0062255859375, -21.74072265625, 32.40203857421875, 79.66499328613281, 0.036246538162231445, -0.031607985496520996, -0.05858421325683594, 0.6009380221366882, 1.6566600799560547, 9.650412559509277, 994.89501953125, 0.03726816177368164, -0.0816478580236435, -0.7109655141830444, 90.0, -9.676492067923498, -3.5420515799776338, android.sensor.magnetic_field
1551585040933, 0.457244873046875, 0.9105224609375, 9.829010009765625, -0.034149169921875, 0.027740478515625, -0.0277862548828125, -347.0062255859375, -21.74072265625, 32.40203857421875, 79.66499328613281, 0.036246538162231445, -0.031607985496520996, -0.05858421325683594, 0.6009380221366882, 1.6566600799560547, 9.650412559509277, 994.89501953125, 0.03726816177368164, -0.0816478580236435, -0.7109655141830444, 90.0, -9.676492067923498, -3.5420515799776338, android.sensor.gyroscope
1551585040940, 0.2504425048828125, 0.7930145263671875, 9.836456298828125, -0.034149169921875, 0.027740478515625, -0.0277862548828125, -347.0062255859375, -21.74072265625, 32.40203857421875, 79.66499328613281, 0.036246538162231445, -0.031607985496520996, -0.05858421325683594, 0.6009380221366882, 1.6566600799560547, 9.650412559509277, 994.89501953125, 0.03726816177368164, -0.0816478580236435, -0.7109655141830444, 90.0, -9.676492067923498, -3.5420515799776338, android.sensor.accelerometer
1551585040944, 0.2504425048828125, 0.7930145263671875, 9.836456298828125, -0.034149169921875, 0.027740478515625, -0.0277862548828125, -347.0062255859375, -21.74072265625, 32.40203857421875, 79.66499328613281, 0.036246538162231445, -0.031607985496520996, -0.05858421325683594, 0.6009380221366882, 1.6566600799560547, 9.650412559509277, 994.8997802734375, 0.03726816177368164, -0.0816478580236435, -0.7109655141830444, 90.0, -9.676492067923498, -3.5420515799776338, android.sensor.pressure
1551585041011, 0.2504425048828125, 0.7930145263671875, 9.836456298828125, -0.034149169921875, 0.027740478515625, -0.0277862548828125, -347.48687744140625, -22.0703125, 33.96148681640625, 79.66499328613281, 0.036246538162231445, -0.031607985496520996, -0.05858421325683594, 0.6009380221366882, 1.6566600799560547, 9.650412559509277, 994.8997802734375, 0.03726816177368164, -0.0816478580236435, -0.7109655141830444, 90.0, -9.676492067923498, -3.5420515799776338, android.sensor.magnetic_field
1551585041031, 0.2504425048828125, 0.7930145263671875, 9.836456298828125, -0.0159759521484375, -0.0015106201171875, -0.034515380859375, -347.48687744140625, -22.0703125, 33.96148681640625, 79.66499328613281, 0.036246538162231445, -0.031607985496520996, -0.05858421325683594, 0.6009380221366882, 1.6566600799560547, 9.650412559509277, 994.8997802734375, 0.03726816177368164, -0.0816478580236435, -0.7109655141830444, 90.0, -9.676492067923498, -3.5420515799776338, android.sensor.gyroscope
1551585041035, 0.3124542236328125, 0.838592529296875, 9.813613891601562, -0.0159759521484375, -0.0015106201171875, -0.034515380859375, -347.48687744140625, -22.0703125, 33.96148681640625, 79.66499328613281, 0.036246538162231445, -0.031607985496520996, -0.05858421325683594, 0.6009380221366882, 1.6566600799560547, 9.650412559509277, 994.8997802734375, 0.03726816177368164, -0.0816478580236435, -0.7109655141830444, 90.0, -9.676492067923498, -3.5420515799776338, android.sensor.accelerometer
1551585041045, 0.3124542236328125, 0.838592529296875, 9.813613891601562, -0.0159759521484375, -0.0015106201171875, -0.034515380859375, -347.48687744140625, -22.0703125, 33.96148681640625, 79.66499328613281, 0.036246538162231445, -0.031607985496520996, -0.05858421325683594, 0.6009380221366882, 1.6566600799560547, 9.650412559509277, 994.9042358398438, 0.03726816177368164, -0.0816478580236435, -0.7109655141830444, 90.0, -9.676492067923498, -3.5420515799776338, android.sensor.pressure
1551585041112, 0.3124542236328125, 0.838592529296875, 9.813613891601562, -0.0159759521484375, -0.0015106201171875, -0.034515380859375, -347.3968505859375, -22.4609375, 32.6416015625, 79.66499328613281, 0.036246538162231445, -0.031607985496520996, -0.05858421325683594, 0.6009380221366882, 1.6566600799560547, 9.650412559509277, 994.9042358398438, 0.03726816177368164, -0.0816478580236435, -0.7109655141830444, 90.0, -9.676492067923498, -3.5420515799776338, android.sensor.magnetic_field
1551585041131, 0.3124542236328125, 0.838592529296875, 9.813613891601562, 9.1552734375E-4, -0.05584716796875, -0.0595245361328125, -347.3968505859375, -22.4609375, 32.6416015625, 79.66499328613281, 0.036246538162231445, -0.031607985496520996, -0.05858421325683594, 0.6009380221366882, 1.6566600799560547, 9.650412559509277, 994.9042358398438, 0.03726816177368164, -0.0816478580236435, -0.7109655141830444, 90.0, -9.676492067923498, -3.5420515799776338, android.sensor.gyroscope
1551585041135, 0.17425537109375, 0.83074951171875, 9.775390625, 9.1552734375E-4, -0.05584716796875, -0.0595245361328125, -347.3968505859375, -22.4609375, 32.6416015625, 79.66499328613281, 0.036246538162231445, -0.031607985496520996, -0.05858421325683594, 0.6009380221366882, 1.6566600799560547, 9.650412559509277, 994.9042358398438, 0.03726816177368164, -0.0816478580236435, -0.7109655141830444, 90.0, -9.676492067923498, -3.5420515799776338, android.sensor.accelerometer
1551585041148, 0.17425537109375, 0.83074951171875, 9.775390625, 9.1552734375E-4, -0.05584716796875, -0.0595245361328125, -347.3968505859375, -22.4609375, 32.6416015625, 79.66499328613281, 0.036246538162231445, -0.031607985496520996, -0.05858421325683594, 0.6009380221366882, 1.6566600799560547, 9.650412559509277, 994.9042358398438, 0.03726816177368164, -0.0816478580236435, -0.7109655141830444, 90.0, -9.676492067923498, -3.5420515799776338, android.sensor.pressure
1551585041209, 0.17425537109375, 0.83074951171875, 9.775390625, 9.1552734375E-4, -0.05584716796875, -0.0595245361328125, -347.54638671875, -22.430419921875, 33.30230712890625, 79.66499328613281, 0.036246538162231445, -0.031607985496520996, -0.05858421325683594, 0.6009380221366882, 1.6566600799560547, 9.650412559509277, 994.9042358398438, 0.03726816177368164, -0.0816478580236435, -0.7109655141830444, 90.0, -9.676492067923498, -3.5420515799776338, android.sensor.magnetic_field
1551585041229, 0.17425537109375, 0.83074951171875, 9.775390625, -0.0468597412109375, -0.01837158203125, -0.07354736328125, -347.54638671875, -22.430419921875, 33.30230712890625, 79.66499328613281, 0.036246538162231445, -0.031607985496520996, -0.05858421325683594, 0.6009380221366882, 1.6566600799560547, 9.650412559509277, 994.9042358398438, 0.03726816177368164, -0.0816478580236435, -0.7109655141830444, 90.0, -9.676492067923498, -3.5420515799776338, android.sensor.gyroscope
1551585041234, 0.183929443359375, 0.7153778076171875, 9.588592529296875, -0.0468597412109375, -0.01837158203125, -0.07354736328125, -347.54638671875, -22.430419921875, 33.30230712890625, 79.66499328613281, 0.036246538162231445, -0.031607985496520996, -0.05858421325683594, 0.6009380221366882, 1.6566600799560547, 9.650412559509277, 994.9042358398438, 0.03726816177368164, -0.0816478580236435, -0.7109655141830444, 90.0, -9.676492067923498, -3.5420515799776338, android.sensor.accelerometer
1551585041248, 0.183929443359375, 0.7153778076171875, 9.588592529296875, -0.0468597412109375, -0.01837158203125, -0.07354736328125, -347.54638671875, -22.430419921875, 33.30230712890625, 79.66499328613281, 0.036246538162231445, -0.031607985496520996, -0.05858421325683594, 0.6009380221366882, 1.6566600799560547, 9.650412559509277, 994.906494140625, 0.03726816177368164, -0.0816478580236435, -0.7109655141830444, 90.0, -9.676492067923498, -3.5420515799776338, android.sensor.pressure
1551585041308, 0.183929443359375, 0.7153778076171875, 9.588592529296875, -0.0468597412109375, -0.01837158203125, -0.07354736328125, -347.8759765625, -22.30987548828125, 34.11102294921875, 79.66499328613281, 0.036246538162231445, -0.031607985496520996, -0.05858421325683594, 0.6009380221366882, 1.6566600799560547, 9.650412559509277, 994.906494140625, 0.03726816177368164, -0.0816478580236435, -0.7109655141830444, 90.0, -9.676492067923498, -3.5420515799776338, android.sensor.magnetic_field
1551585041327, 0.183929443359375, 0.7153778076171875, 9.588592529296875, 0.009552001953125, 0.0476226806640625, 0.037872314453125, -347.8759765625, -22.30987548828125, 34.11102294921875, 79.66499328613281, 0.036246538162231445, -0.031607985496520996, -0.05858421325683594, 0.6009380221366882, 1.6566600799560547, 9.650412559509277, 994.906494140625, 0.03726816177368164, -0.0816478580236435, -0.7109655141830444, 90.0, -9.676492067923498, -3.5420515799776338, android.sensor.gyroscope
1551585041332, 0.2082366943359375, 0.9677581787109375, 9.408279418945312, 0.009552001953125, 0.0476226806640625, 0.037872314453125, -347.8759765625, -22.30987548828125, 34.11102294921875, 79.66499328613281, 0.036246538162231445, -0.031607985496520996, -0.05858421325683594, 0.6009380221366882, 1.6566600799560547, 9.650412559509277, 994.906494140625, 0.03726816177368164, -0.0816478580236435, -0.7109655141830444, 90.0, -9.676492067923498, -3.5420515799776338, android.sensor.accelerometer
1551585041348, 0.2082366943359375, 0.9677581787109375, 9.408279418945312, 0.009552001953125, 0.0476226806640625, 0.037872314453125, -347.8759765625, -22.30987548828125, 34.11102294921875, 79.66499328613281, 0.036246538162231445, -0.031607985496520996, -0.05858421325683594, 0.6009380221366882, 1.6566600799560547, 9.650412559509277, 994.9044799804688, 0.03726816177368164, -0.0816478580236435, -0.7109655141830444, 90.0, -9.676492067923498, -3.5420515799776338, android.sensor.pressure
1551585041410, 0.2082366943359375, 0.9677581787109375, 9.408279418945312, 0.009552001953125, 0.0476226806640625, 0.037872314453125, -347.96600341796875, -21.32110595703125, 33.48236083984375, 79.66499328613281, 0.036246538162231445, -0.031607985496520996, -0.05858421325683594, 0.6009380221366882, 1.6566600799560547, 9.650412559509277, 994.9044799804688, 0.03726816177368164, -0.0816478580236435, -0.7109655141830444, 90.0, -9.676492067923498, -3.5420515799776338, android.sensor.magnetic_field
1551585041428, 0.2082366943359375, 0.9677581787109375, 9.408279418945312, -0.1633453369140625, 0.06231689453125, -0.0581207275390625, -347.96600341796875, -21.32110595703125, 33.48236083984375, 79.66499328613281, 0.036246538162231445, -0.031607985496520996, -0.05858421325683594, 0.6009380221366882, 1.6566600799560547, 9.650412559509277, 994.9044799804688, 0.03726816177368164, -0.0816478580236435, -0.7109655141830444, 90.0, -9.676492067923498, -3.5420515799776338, android.sensor.gyroscope
1551585041429, 0.2082366943359375, 0.9677581787109375, 9.408279418945312, -0.1633453369140625, 0.06231689453125, -0.0581207275390625, -347.96600341796875, -21.32110595703125, 33.48236083984375, 79.66499328613281, 0.036246538162231445, -0.031607985496520996, -0.05858421325683594, 0.34644660353660583, 0.8425238132476807, 9.767611503601074, 994.9044799804688, 0.03726816177368164, -0.0816478580236435, -0.7109655141830444, 90.0, -9.676492067923498, -3.5420515799776338, android.sensor.gravity
1551585041429, 0.2848663330078125, 1.004547119140625, 10.1617431640625, -0.1633453369140625, 0.06231689453125, -0.0581207275390625, -347.96600341796875, -21.32110595703125, 33.48236083984375, 79.66499328613281, 0.036246538162231445, -0.031607985496520996, -0.05858421325683594, 0.34644660353660583, 0.8425238132476807, 9.767611503601074, 994.9044799804688, 0.03726816177368164, -0.0816478580236435, -0.7109655141830444, 90.0, -9.676492067923498, -3.5420515799776338, android.sensor.accelerometer
1551585041446, 0.2848663330078125, 1.004547119140625, 10.1617431640625, -0.1633453369140625, 0.06231689453125, -0.0581207275390625, -347.96600341796875, -21.32110595703125, 33.48236083984375, 79.66499328613281, -0.072032630443573, -0.037690818309783936, -0.7131595611572266, 0.34644660353660583, 0.8425238132476807, 9.767611503601074, 994.9044799804688, 0.03726816177368164, -0.0816478580236435, -0.7109655141830444, 90.0, -9.676492067923498, -3.5420515799776338, android.sensor.linear_acceleration
1551585041446, 0.2848663330078125, 1.004547119140625, 10.1617431640625, -0.1633453369140625, 0.06231689453125, -0.0581207275390625, -347.96600341796875, -21.32110595703125, 33.48236083984375, 83.90299987792969, -0.072032630443573, -0.037690818309783936, -0.7131595611572266, 0.34644660353660583, 0.8425238132476807, 9.767611503601074, 994.9044799804688, 0.03726816177368164, -0.0816478580236435, -0.7109655141830444, 90.0, -9.676492067923498, -3.5420515799776338, android.sensor.light
1551585041446, 0.2848663330078125, 1.004547119140625, 10.1617431640625, -0.1633453369140625, 0.06231689453125, -0.0581207275390625, -347.96600341796875, -21.32110595703125, 33.48236083984375, 83.90299987792969, -0.072032630443573, -0.037690818309783936, -0.7131595611572266, 0.34644660353660583, 0.8425238132476807, 9.767611503601074, 994.9044799804688, 0.03726816177368164, -0.0816478580236435, -0.7109655141830444, 90.0, -9.676492067923498, -3.5420515799776338, android.sensor.pressure
1551585041457, 0.2848663330078125, 1.004547119140625, 10.1617431640625, -0.1633453369140625, 0.06231689453125, -0.0581207275390625, -347.96600341796875, -21.32110595703125, 33.48236083984375, 83.90299987792969, -0.072032630443573, -0.037690818309783936, -0.7131595611572266, 0.34644660353660583, 0.8425238132476807, 9.767611503601074, 994.9044799804688, 0.016507048159837723, -0.04337156563997269, -0.7304929494857788, 93.0, -4.925429556735554, -2.012344484215007, android.sensor.rotation_vector
1551585041458, 0.2848663330078125, 1.004547119140625, 10.1617431640625, -0.1633453369140625, 0.06231689453125, -0.0581207275390625, -347.96600341796875, -21.32110595703125, 33.48236083984375, 83.90299987792969, -0.072032630443573, -0.037690818309783936, -0.7131595611572266, 0.34644660353660583, 0.8425238132476807, 9.767611503601074, 994.9044799804688, 0.016507048159837723, -0.04337156563997269, -0.7304929494857788, 93.0, -4.925429556735554, -2.012344484215007, android.sensor.orientation
1551585041500, 0.2848663330078125, 1.004547119140625, 10.1617431640625, -0.1633453369140625, 0.06231689453125, -0.0581207275390625, -349.04632568359375, -21.58966064453125, 33.9019775390625, 83.90299987792969, -0.072032630443573, -0.037690818309783936, -0.7131595611572266, 0.34644660353660583, 0.8425238132476807, 9.767611503601074, 994.9044799804688, 0.016507048159837723, -0.04337156563997269, -0.7304929494857788, 93.0, -4.925429556735554, -2.012344484215007, android.sensor.magnetic_field
1551585041520, 0.2848663330078125, 1.004547119140625, 10.1617431640625, -0.025146484375, 0.096771240234375, -0.005126953125, -349.04632568359375, -21.58966064453125, 33.9019775390625, 83.90299987792969, -0.072032630443573, -0.037690818309783936, -0.7131595611572266, 0.34644660353660583, 0.8425238132476807, 9.767611503601074, 994.9044799804688, 0.016507048159837723, -0.04337156563997269, -0.7304929494857788, 93.0, -4.925429556735554, -2.012344484215007, android.sensor.gyroscope
1551585041524, 0.60675048828125, 0.9803314208984375, 10.277862548828125, -0.025146484375, 0.096771240234375, -0.005126953125, -349.04632568359375, -21.58966064453125, 33.9019775390625, 83.90299987792969, -0.072032630443573, -0.037690818309783936, -0.7131595611572266, 0.34644660353660583, 0.8425238132476807, 9.767611503601074, 994.9044799804688, 0.016507048159837723, -0.04337156563997269, -0.7304929494857788, 93.0, -4.925429556735554, -2.012344484215007, android.sensor.accelerometer
1551585041524, 0.60675048828125, 0.9803314208984375, 10.277862548828125, -0.025146484375, 0.096771240234375, -0.005126953125, -349.04632568359375, -21.58966064453125, 33.9019775390625, 83.90299987792969, -0.072032630443573, -0.037690818309783936, -0.7131595611572266, 0.2537088394165039, 0.8187838792800903, 9.772479057312012, 994.9044799804688, 0.016507048159837723, -0.04337156563997269, -0.7304929494857788, 93.0, -4.925429556735554, -2.012344484215007, android.sensor.gravity
1551585041540, 0.60675048828125, 0.9803314208984375, 10.277862548828125, -0.025146484375, 0.096771240234375, -0.005126953125, -349.04632568359375, -21.58966064453125, 33.9019775390625, 83.90299987792969, -0.43482333421707153, -0.19131070375442505, -0.44263458251953125, 0.2537088394165039, 0.8187838792800903, 9.772479057312012, 994.9044799804688, 0.016507048159837723, -0.04337156563997269, -0.7304929494857788, 93.0, -4.925429556735554, -2.012344484215007, android.sensor.linear_acceleration
1551585041545, 0.60675048828125, 0.9803314208984375, 10.277862548828125, -0.025146484375, 0.096771240234375, -0.005126953125, -349.04632568359375, -21.58966064453125, 33.9019775390625, 83.90299987792969, -0.43482333421707153, -0.19131070375442505, -0.44263458251953125, 0.2537088394165039, 0.8187838792800903, 9.772479057312012, 994.91064453125, 0.016507048159837723, -0.04337156563997269, -0.7304929494857788, 93.0, -4.925429556735554, -2.012344484215007, android.sensor.pressure
1551585041548, 0.60675048828125, 0.9803314208984375, 10.277862548828125, -0.025146484375, 0.096771240234375, -0.005126953125, -349.04632568359375, -21.58966064453125, 33.9019775390625, 83.90299987792969, -0.43482333421707153, -0.19131070375442505, -0.44263458251953125, 0.2537088394165039, 0.8187838792800903, 9.772479057312012, 994.91064453125, 0.020269887521862984, -0.041774045675992966, -0.7302058935165405, 93.0, -5.085438263987327, -1.5733137981883387, android.sensor.rotation_vector
1551585041553, 0.60675048828125, 0.9803314208984375, 10.277862548828125, -0.025146484375, 0.096771240234375, -0.005126953125, -349.04632568359375, -21.58966064453125, 33.9019775390625, 83.90299987792969, -0.43482333421707153, -0.19131070375442505, -0.44263458251953125, 0.2537088394165039, 0.8187838792800903, 9.772479057312012, 994.91064453125, 0.020269887521862984, -0.041774045675992966, -0.7302058935165405, 93.0, -5.085438263987327, -1.5733137981883387, android.sensor.orientation
1551585041604, 0.60675048828125, 0.9803314208984375, 10.277862548828125, -0.025146484375, 0.096771240234375, -0.005126953125, -349.70703125, -21.2310791015625, 34.29107666015625, 83.90299987792969, -0.43482333421707153, -0.19131070375442505, -0.44263458251953125, 0.2537088394165039, 0.8187838792800903, 9.772479057312012, 994.91064453125, 0.020269887521862984, -0.041774045675992966, -0.7302058935165405, 93.0, -5.085438263987327, -1.5733137981883387, android.sensor.magnetic_field
1551585041626, 0.60675048828125, 0.9803314208984375, 10.277862548828125, 0.039581298828125, -0.0052947998046875, -0.0530548095703125, -349.70703125, -21.2310791015625, 34.29107666015625, 83.90299987792969, -0.43482333421707153, -0.19131070375442505, -0.44263458251953125, 0.2537088394165039, 0.8187838792800903, 9.772479057312012, 994.91064453125, 0.020269887521862984, -0.041774045675992966, -0.7302058935165405, 93.0, -5.085438263987327, -1.5733137981883387, android.sensor.gyroscope
1551585041627, 0.530364990234375, 1.32696533203125, 9.440017700195312, 0.039581298828125, -0.0052947998046875, -0.0530548095703125, -349.70703125, -21.2310791015625, 34.29107666015625, 83.90299987792969, -0.43482333421707153, -0.19131070375442505, -0.44263458251953125, 0.2537088394165039, 0.8187838792800903, 9.772479057312012, 994.91064453125, 0.020269887521862984, -0.041774045675992966, -0.7302058935165405, 93.0, -5.085438263987327, -1.5733137981883387, android.sensor.accelerometer
1551585041627, 0.530364990234375, 1.32696533203125, 9.440017700195312, 0.039581298828125, -0.0052947998046875, -0.0530548095703125, -349.70703125, -21.2310791015625, 34.29107666015625, 83.90299987792969, -0.43482333421707153, -0.19131070375442505, -0.44263458251953125, 0.2543688714504242, 0.8578843474388123, 9.769105911254883, 994.91064453125, 0.020269887521862984, -0.041774045675992966, -0.7302058935165405, 93.0, -5.085438263987327, -1.5733137981883387, android.sensor.gravity
1551585041643, 0.530364990234375, 1.32696533203125, 9.440017700195312, 0.039581298828125, -0.0052947998046875, -0.0530548095703125, -349.70703125, -21.2310791015625, 34.29107666015625, 83.90299987792969, -0.3237627148628235, -0.37687015533447266, 0.2371225357055664, 0.2543688714504242, 0.8578843474388123, 9.769105911254883, 994.91064453125, 0.020269887521862984, -0.041774045675992966, -0.7302058935165405, 93.0, -5.085438263987327, -1.5733137981883387, android.sensor.linear_acceleration
1551585041649, 0.530364990234375, 1.32696533203125, 9.440017700195312, 0.039581298828125, -0.0052947998046875, -0.0530548095703125, -349.70703125, -21.2310791015625, 34.29107666015625, 83.90299987792969, -0.3237627148628235, -0.37687015533447266, 0.2371225357055664, 0.2543688714504242, 0.8578843474388123, 9.769105911254883, 994.91064453125, 0.020269887521862984, -0.041774045675992966, -0.7302058935165405, 93.0, -5.085438263987327, -1.5733137981883387, android.sensor.pressure
1551585041650, 0.530364990234375, 1.32696533203125, 9.440017700195312, 0.039581298828125, -0.0052947998046875, -0.0530548095703125, -349.70703125, -21.2310791015625, 34.29107666015625, 83.90299987792969, -0.3237627148628235, -0.37687015533447266, 0.2371225357055664, 0.2543688714504242, 0.8578843474388123, 9.769105911254883, 994.91064453125, 0.020007912069559097, -0.04276575148105621, -0.7329248785972595, 94.0, -5.154729252456637, -1.6523892460871035, android.sensor.rotation_vector
1551585041658, 0.530364990234375, 1.32696533203125, 9.440017700195312, 0.039581298828125, -0.0052947998046875, -0.0530548095703125, -349.70703125, -21.2310791015625, 34.29107666015625, 83.90299987792969, -0.3237627148628235, -0.37687015533447266, 0.2371225357055664, 0.2543688714504242, 0.8578843474388123, 9.769105911254883, 994.91064453125, 0.020007912069559097, -0.04276575148105621, -0.7329248785972595, 94.0, -5.154729252456637, -1.6523892460871035, android.sensor.orientation
1551585041701, 0.530364990234375, 1.32696533203125, 9.440017700195312, 0.039581298828125, -0.0052947998046875, -0.0530548095703125, -350.5767822265625, -19.70062255859375, 34.89227294921875, 83.90299987792969, -0.3237627148628235, -0.37687015533447266, 0.2371225357055664, 0.2543688714504242, 0.8578843474388123, 9.769105911254883, 994.91064453125, 0.020007912069559097, -0.04276575148105621, -0.7329248785972595, 94.0, -5.154729252456637, -1.6523892460871035, android.sensor.magnetic_field
1551585041719, 0.530364990234375, 1.32696533203125, 9.440017700195312, -0.0764007568359375, -0.026641845703125, -0.156463623046875, -350.5767822265625, -19.70062255859375, 34.89227294921875, 83.90299987792969, -0.3237627148628235, -0.37687015533447266, 0.2371225357055664, 0.2543688714504242, 0.8578843474388123, 9.769105911254883, 994.91064453125, 0.020007912069559097, -0.04276575148105621, -0.7329248785972595, 94.0, -5.154729252456637, -1.6523892460871035, android.sensor.gyroscope
1551585041723, 0.5336456298828125, 1.099517822265625, 9.617202758789062, -0.0764007568359375, -0.026641845703125, -0.156463623046875, -350.5767822265625, -19.70062255859375, 34.89227294921875, 83.90299987792969, -0.3237627148628235, -0.37687015533447266, 0.2371225357055664, 0.2543688714504242, 0.8578843474388123, 9.769105911254883, 994.91064453125, 0.020007912069559097, -0.04276575148105621, -0.7329248785972595, 94.0, -5.154729252456637, -1.6523892460871035, android.sensor.accelerometer
1551585041724, 0.5336456298828125, 1.099517822265625, 9.617202758789062, -0.0764007568359375, -0.026641845703125, -0.156463623046875, -350.5767822265625, -19.70062255859375, 34.89227294921875, 83.90299987792969, -0.3237627148628235, -0.37687015533447266, 0.2371225357055664, 0.26726004481315613, 0.7890405654907227, 9.774563789367676, 994.91064453125, 0.020007912069559097, -0.04276575148105621, -0.7329248785972595, 94.0, -5.154729252456637, -1.6523892460871035, android.sensor.gravity
1551585041742, 0.5336456298828125, 1.099517822265625, 9.617202758789062, -0.0764007568359375, -0.026641845703125, -0.156463623046875, -350.5767822265625, -19.70062255859375, 34.89227294921875, 83.90299987792969, -0.33500123023986816, -0.24084573984146118, 0.004962921142578125, 0.26726004481315613, 0.7890405654907227, 9.774563789367676, 994.91064453125, 0.020007912069559097, -0.04276575148105621, -0.7329248785972595, 94.0, -5.154729252456637, -1.6523892460871035, android.sensor.linear_acceleration
1551585041751, 0.5336456298828125, 1.099517822265625, 9.617202758789062, -0.0764007568359375, -0.026641845703125, -0.156463623046875, -350.5767822265625, -19.70062255859375, 34.89227294921875, 83.90299987792969, -0.33500123023986816, -0.24084573984146118, 0.004962921142578125, 0.26726004481315613, 0.7890405654907227, 9.774563789367676, 994.9111328125, 0.020007912069559097, -0.04276575148105621, -0.7329248785972595, 94.0, -5.154729252456637, -1.6523892460871035, android.sensor.pressure
1551585041751, 0.5336456298828125, 1.099517822265625, 9.617202758789062, -0.0764007568359375, -0.026641845703125, -0.156463623046875, -350.5767822265625, -19.70062255859375, 34.89227294921875, 83.90299987792969, -0.33500123023986816, -0.24084573984146118, 0.004962921142578125, 0.26726004481315613, 0.7890405654907227, 9.774563789367676, 994.9111328125, 0.016600649803876877, -0.03999101743102074, -0.7391846179962158, 95.0, -4.671135210633632, -1.679704346516748, android.sensor.rotation_vector
1551585041757, 0.5336456298828125, 1.099517822265625, 9.617202758789062, -0.0764007568359375, -0.026641845703125, -0.156463623046875, -350.5767822265625, -19.70062255859375, 34.89227294921875, 83.90299987792969, -0.33500123023986816, -0.24084573984146118, 0.004962921142578125, 0.26726004481315613, 0.7890405654907227, 9.774563789367676, 994.9111328125, 0.016600649803876877, -0.03999101743102074, -0.7391846179962158, 95.0, -4.671135210633632, -1.679704346516748, android.sensor.orientation
1551585041799, 0.5336456298828125, 1.099517822265625, 9.617202758789062, -0.0764007568359375, -0.026641845703125, -0.156463623046875, -350.45623779296875, -19.99969482421875, 35.882568359375, 83.90299987792969, -0.33500123023986816, -0.24084573984146118, 0.004962921142578125, 0.26726004481315613, 0.7890405654907227, 9.774563789367676, 994.9111328125, 0.016600649803876877, -0.03999101743102074, -0.7391846179962158, 95.0, -4.671135210633632, -1.679704346516748, android.sensor.magnetic_field
1551585041819, 0.5336456298828125, 1.099517822265625, 9.617202758789062, -0.1157989501953125, 0.0074615478515625, -0.189971923828125, -350.45623779296875, -19.99969482421875, 35.882568359375, 83.90299987792969, -0.33500123023986816, -0.24084573984146118, 0.004962921142578125, 0.26726004481315613, 0.7890405654907227, 9.774563789367676, 994.9111328125, 0.016600649803876877, -0.03999101743102074, -0.7391846179962158, 95.0, -4.671135210633632, -1.679704346516748, android.sensor.gyroscope
1551585041819, 0.4362640380859375, 0.909820556640625, 9.608551025390625, -0.1157989501953125, 0.0074615478515625, -0.189971923828125, -350.45623779296875, -19.99969482421875, 35.882568359375, 83.90299987792969, -0.33500123023986816, -0.24084573984146118, 0.004962921142578125, 0.26726004481315613, 0.7890405654907227, 9.774563789367676, 994.9111328125, 0.016600649803876877, -0.03999101743102074, -0.7391846179962158, 95.0, -4.671135210633632, -1.679704346516748, android.sensor.accelerometer
1551585041820, 0.4362640380859375, 0.909820556640625, 9.608551025390625, -0.1157989501953125, 0.0074615478515625, -0.189971923828125, -350.45623779296875, -19.99969482421875, 35.882568359375, 83.90299987792969, -0.33500123023986816, -0.24084573984146118, 0.004962921142578125, 0.2464974820613861, 0.6833227276802063, 9.78306770324707, 994.9111328125, 0.016600649803876877, -0.03999101743102074, -0.7391846179962158, 95.0, -4.671135210633632, -1.679704346516748, android.sensor.gravity
1551585041838, 0.4362640380859375, 0.909820556640625, 9.608551025390625, -0.1157989501953125, 0.0074615478515625, -0.189971923828125, -350.45623779296875, -19.99969482421875, 35.882568359375, 83.90299987792969, -0.24367299675941467, -0.19797557592391968, 0.07015514373779297, 0.2464974820613861, 0.6833227276802063, 9.78306770324707, 994.9111328125, 0.016600649803876877, -0.03999101743102074, -0.7391846179962158, 95.0, -4.671135210633632, -1.679704346516748, android.sensor.linear_acceleration
1551585041849, 0.4362640380859375, 0.909820556640625, 9.608551025390625, -0.1157989501953125, 0.0074615478515625, -0.189971923828125, -350.45623779296875, -19.99969482421875, 35.882568359375, 83.90299987792969, -0.24367299675941467, -0.19797557592391968, 0.07015514373779297, 0.2464974820613861, 0.6833227276802063, 9.78306770324707, 994.9111328125, 0.013847051188349724, -0.03595556318759918, -0.7447777986526489, 96.0, -4.12930569528663, -1.5673610748832612, android.sensor.rotation_vector
1551585041850, 0.4362640380859375, 0.909820556640625, 9.608551025390625, -0.1157989501953125, 0.0074615478515625, -0.189971923828125, -350.45623779296875, -19.99969482421875, 35.882568359375, 83.90299987792969, -0.24367299675941467, -0.19797557592391968, 0.07015514373779297, 0.2464974820613861, 0.6833227276802063, 9.78306770324707, 994.9099731445312, 0.013847051188349724, -0.03595556318759918, -0.7447777986526489, 96.0, -4.12930569528663, -1.5673610748832612, android.sensor.pressure
1551585041850, 0.4362640380859375, 0.909820556640625, 9.608551025390625, -0.1157989501953125, 0.0074615478515625, -0.189971923828125, -350.45623779296875, -19.99969482421875, 35.882568359375, 83.90299987792969, -0.24367299675941467, -0.19797557592391968, 0.07015514373779297, 0.2464974820613861, 0.6833227276802063, 9.78306770324707, 994.9099731445312, 0.013847051188349724, -0.03595556318759918, -0.7447777986526489, 96.0, -4.12930569528663, -1.5673610748832612, android.sensor.orientation
1551585041898, 0.4362640380859375, 0.909820556640625, 9.608551025390625, -0.1157989501953125, 0.0074615478515625, -0.189971923828125, -350.84686279296875, -18.9208984375, 37.38250732421875, 83.90299987792969, -0.24367299675941467, -0.19797557592391968, 0.07015514373779297, 0.2464974820613861, 0.6833227276802063, 9.78306770324707, 994.9099731445312, 0.013847051188349724, -0.03595556318759918, -0.7447777986526489, 96.0, -4.12930569528663, -1.5673610748832612, android.sensor.magnetic_field
1551585041916, 0.4362640380859375, 0.909820556640625, 9.608551025390625, -0.015228271484375, 0.0077972412109375, -0.0863037109375, -350.84686279296875, -18.9208984375, 37.38250732421875, 83.90299987792969, -0.24367299675941467, -0.19797557592391968, 0.07015514373779297, 0.2464974820613861, 0.6833227276802063, 9.78306770324707, 994.9099731445312, 0.013847051188349724, -0.03595556318759918, -0.7447777986526489, 96.0, -4.12930569528663, -1.5673610748832612, android.sensor.gyroscope
1551585041917, 0.4362640380859375, 0.909820556640625, 9.608551025390625, -0.015228271484375, 0.0077972412109375, -0.0863037109375, -350.84686279296875, -18.9208984375, 37.38250732421875, 83.90299987792969, -0.24367299675941467, -0.19797557592391968, 0.07015514373779297, 0.23346513509750366, 0.6708829402923584, 9.784248352050781, 994.9099731445312, 0.013847051188349724, -0.03595556318759918, -0.7447777986526489, 96.0, -4.12930569528663, -1.5673610748832612, android.sensor.gravity
1551585041917, 0.3421783447265625, 1.2293853759765625, 9.548919677734375, -0.015228271484375, 0.0077972412109375, -0.0863037109375, -350.84686279296875, -18.9208984375, 37.38250732421875, 83.90299987792969, -0.24367299675941467, -0.19797557592391968, 0.07015514373779297, 0.23346513509750366, 0.6708829402923584, 9.784248352050781, 994.9099731445312, 0.013847051188349724, -0.03595556318759918, -0.7447777986526489, 96.0, -4.12930569528663, -1.5673610748832612, android.sensor.accelerometer
1551585041936, 0.3421783447265625, 1.2293853759765625, 9.548919677734375, -0.015228271484375, 0.0077972412109375, -0.0863037109375, -350.84686279296875, -18.9208984375, 37.38250732421875, 83.90299987792969, -0.16548503935337067, -0.5164738297462463, 0.06325626373291016, 0.23346513509750366, 0.6708829402923584, 9.784248352050781, 994.9099731445312, 0.013847051188349724, -0.03595556318759918, -0.7447777986526489, 96.0, -4.12930569528663, -1.5673610748832612, android.sensor.linear_acceleration
1551585041949, 0.3421783447265625, 1.2293853759765625, 9.548919677734375, -0.015228271484375, 0.0077972412109375, -0.0863037109375, -350.84686279296875, -18.9208984375, 37.38250732421875, 83.90299987792969, -0.16548503935337067, -0.5164738297462463, 0.06325626373291016, 0.23346513509750366, 0.6708829402923584, 9.784248352050781, 994.9099731445312, 0.014360221102833748, -0.03553500398993492, -0.7464537620544434, 96.0, -4.13635957315196, -1.4808572626535785, android.sensor.rotation_vector
1551585041950, 0.3421783447265625, 1.2293853759765625, 9.548919677734375, -0.015228271484375, 0.0077972412109375, -0.0863037109375, -350.84686279296875, -18.9208984375, 37.38250732421875, 83.90299987792969, -0.16548503935337067, -0.5164738297462463, 0.06325626373291016, 0.23346513509750366, 0.6708829402923584, 9.784248352050781, 994.9099731445312, 0.014360221102833748, -0.03553500398993492, -0.7464537620544434, 96.0, -4.13635957315196, -1.4808572626535785, android.sensor.orientation
1551585041950, 0.3421783447265625, 1.2293853759765625, 9.548919677734375, -0.015228271484375, 0.0077972412109375, -0.0863037109375, -350.84686279296875, -18.9208984375, 37.38250732421875, 83.90299987792969, -0.16548503935337067, -0.5164738297462463, 0.06325626373291016, 0.23346513509750366, 0.6708829402923584, 9.784248352050781, 994.9099731445312, 0.014360221102833748, -0.03553500398993492, -0.7464537620544434, 96.0, -4.13635957315196, -1.4808572626535785, android.sensor.pressure
1551585041988, 0.3421783447265625, 1.2293853759765625, 9.548919677734375, -0.015228271484375, 0.0077972412109375, -0.0863037109375, -351.2969970703125, -17.840576171875, 38.43231201171875, 83.90299987792969, -0.16548503935337067, -0.5164738297462463, 0.06325626373291016, 0.23346513509750366, 0.6708829402923584, 9.784248352050781, 994.9099731445312, 0.014360221102833748, -0.03553500398993492, -0.7464537620544434, 96.0, -4.13635957315196, -1.4808572626535785, android.sensor.magnetic_field
1551585042007, 0.3421783447265625, 1.2293853759765625, 9.548919677734375, 3.204345703125E-4, -0.049652099609375, 0.0528411865234375, -351.2969970703125, -17.840576171875, 38.43231201171875, 83.90299987792969, -0.16548503935337067, -0.5164738297462463, 0.06325626373291016, 0.23346513509750366, 0.6708829402923584, 9.784248352050781, 994.9099731445312, 0.014360221102833748, -0.03553500398993492, -0.7464537620544434, 96.0, -4.13635957315196, -1.4808572626535785, android.sensor.gyroscope
1551585042012, 0.4971160888671875, 1.3281402587890625, 10.632003784179688, 3.204345703125E-4, -0.049652099609375, 0.0528411865234375, -351.2969970703125, -17.840576171875, 38.43231201171875, 83.90299987792969, -0.16548503935337067, -0.5164738297462463, 0.06325626373291016, 0.23346513509750366, 0.6708829402923584, 9.784248352050781, 994.9099731445312, 0.014360221102833748, -0.03553500398993492, -0.7464537620544434, 96.0, -4.13635957315196, -1.4808572626535785, android.sensor.accelerometer
1551585042013, 0.4971160888671875, 1.3281402587890625, 10.632003784179688, 3.204345703125E-4, -0.049652099609375, 0.0528411865234375, -351.2969970703125, -17.840576171875, 38.43231201171875, 83.90299987792969, -0.16548503935337067, -0.5164738297462463, 0.06325626373291016, 0.28439998626708984, 0.6700562238693237, 9.782957077026367, 994.9099731445312, 0.014360221102833748, -0.03553500398993492, -0.7464537620544434, 96.0, -4.13635957315196, -1.4808572626535785, android.sensor.gravity
1551585042027, 0.4971160888671875, 1.3281402587890625, 10.632003784179688, 3.204345703125E-4, -0.049652099609375, 0.0528411865234375, -351.2969970703125, -17.840576171875, 38.43231201171875, 83.90299987792969, -0.32707852125167847, -0.5304821133613586, -1.2480525970458984, 0.28439998626708984, 0.6700562238693237, 9.782957077026367, 994.9099731445312, 0.014360221102833748, -0.03553500398993492, -0.7464537620544434, 96.0, -4.13635957315196, -1.4808572626535785, android.sensor.linear_acceleration
1551585042036, 0.4971160888671875, 1.3281402587890625, 10.632003784179688, 3.204345703125E-4, -0.049652099609375, 0.0528411865234375, -351.2969970703125, -17.840576171875, 38.43231201171875, 83.90299987792969, -0.32707852125167847, -0.5304821133613586, -1.2480525970458984, 0.28439998626708984, 0.6700562238693237, 9.782957077026367, 994.9099731445312, 0.01270733866840601, -0.03633200377225876, -0.7451671957969666, 96.0, -4.075278045178182, -1.6912540896815338, android.sensor.rotation_vector
1551585042042, 0.4971160888671875, 1.3281402587890625, 10.632003784179688, 3.204345703125E-4, -0.049652099609375, 0.0528411865234375, -351.2969970703125, -17.840576171875, 38.43231201171875, 83.90299987792969, -0.32707852125167847, -0.5304821133613586, -1.2480525970458984, 0.28439998626708984, 0.6700562238693237, 9.782957077026367, 994.9099731445312, 0.01270733866840601, -0.03633200377225876, -0.7451671957969666, 96.0, -4.075278045178182, -1.6912540896815338, android.sensor.orientation
1551585042047, 0.4971160888671875, 1.3281402587890625, 10.632003784179688, 3.204345703125E-4, -0.049652099609375, 0.0528411865234375, -351.2969970703125, -17.840576171875, 38.43231201171875, 83.90299987792969, -0.32707852125167847, -0.5304821133613586, -1.2480525970458984, 0.28439998626708984, 0.6700562238693237, 9.782957077026367, 994.9099731445312, 0.01270733866840601, -0.03633200377225876, -0.7451671957969666, 96.0, -4.075278045178182, -1.6912540896815338, android.sensor.pressure
1551585042088, 0.4971160888671875, 1.3281402587890625, 10.632003784179688, 3.204345703125E-4, -0.049652099609375, 0.0528411865234375, -350.787353515625, -14.72015380859375, 39.8712158203125, 83.90299987792969, -0.32707852125167847, -0.5304821133613586, -1.2480525970458984, 0.28439998626708984, 0.6700562238693237, 9.782957077026367, 994.9099731445312, 0.01270733866840601, -0.03633200377225876, -0.7451671957969666, 96.0, -4.075278045178182, -1.6912540896815338, android.sensor.magnetic_field
1551585042107, 0.4971160888671875, 1.3281402587890625, 10.632003784179688, 0.1503448486328125, 0.016326904296875, 0.0453338623046875, -350.787353515625, -14.72015380859375, 39.8712158203125, 83.90299987792969, -0.32707852125167847, -0.5304821133613586, -1.2480525970458984, 0.28439998626708984, 0.6700562238693237, 9.782957077026367, 994.9099731445312, 0.01270733866840601, -0.03633200377225876, -0.7451671957969666, 96.0, -4.075278045178182, -1.6912540896815338, android.sensor.gyroscope
1551585042113, 0.16790771484375, 0.5216522216796875, 10.645462036132812, 0.1503448486328125, 0.016326904296875, 0.0453338623046875, -350.787353515625, -14.72015380859375, 39.8712158203125, 83.90299987792969, -0.32707852125167847, -0.5304821133613586, -1.2480525970458984, 0.28439998626708984, 0.6700562238693237, 9.782957077026367, 994.9099731445312, 0.01270733866840601, -0.03633200377225876, -0.7451671957969666, 96.0, -4.075278045178182, -1.6912540896815338, android.sensor.accelerometer
1551585042113, 0.16790771484375, 0.5216522216796875, 10.645462036132812, 0.1503448486328125, 0.016326904296875, 0.0453338623046875, -350.787353515625, -14.72015380859375, 39.8712158203125, 83.90299987792969, -0.32707852125167847, -0.5304821133613586, -1.2480525970458984, 0.2723081409931183, 0.8124860525131226, 9.772503852844238, 994.9099731445312, 0.01270733866840601, -0.03633200377225876, -0.7451671957969666, 96.0, -4.075278045178182, -1.6912540896815338, android.sensor.gravity
1551585042128, 0.16790771484375, 0.5216522216796875, 10.645462036132812, 0.1503448486328125, 0.016326904296875, 0.0453338623046875, -350.787353515625, -14.72015380859375, 39.8712158203125, 83.90299987792969, 0.10909339785575867, 0.40651601552963257, -0.7682075500488281, 0.2723081409931183, 0.8124860525131226, 9.772503852844238, 994.9099731445312, 0.01270733866840601, -0.03633200377225876, -0.7451671957969666, 96.0, -4.075278045178182, -1.6912540896815338, android.sensor.linear_acceleration
1551585042139, 0.16790771484375, 0.5216522216796875, 10.645462036132812, 0.1503448486328125, 0.016326904296875, 0.0453338623046875, -350.787353515625, -14.72015380859375, 39.8712158203125, 83.90299987792969, 0.10909339785575867, 0.40651601552963257, -0.7682075500488281, 0.2723081409931183, 0.8124860525131226, 9.772503852844238, 994.9099731445312, 0.018163764849305153, -0.04430678114295006, -0.7413545846939087, 95.0, -5.16428810220007, -1.8635078320112588, android.sensor.rotation_vector
1551585042144, 0.16790771484375, 0.5216522216796875, 10.645462036132812, 0.1503448486328125, 0.016326904296875, 0.0453338623046875, -350.787353515625, -14.72015380859375, 39.8712158203125, 83.90299987792969, 0.10909339785575867, 0.40651601552963257, -0.7682075500488281, 0.2723081409931183, 0.8124860525131226, 9.772503852844238, 994.9099731445312, 0.018163764849305153, -0.04430678114295006, -0.7413545846939087, 95.0, -5.16428810220007, -1.8635078320112588, android.sensor.orientation
1551585042148, 0.16790771484375, 0.5216522216796875, 10.645462036132812, 0.1503448486328125, 0.016326904296875, 0.0453338623046875, -350.787353515625, -14.72015380859375, 39.8712158203125, 83.90299987792969, 0.10909339785575867, 0.40651601552963257, -0.7682075500488281, 0.2723081409931183, 0.8124860525131226, 9.772503852844238, 994.9099731445312, 0.018163764849305153, -0.04430678114295006, -0.7413545846939087, 95.0, -5.16428810220007, -1.8635078320112588, android.sensor.pressure
1551585042153, 0.16790771484375, 0.5216522216796875, 10.645462036132812, 0.1503448486328125, 0.016326904296875, 0.0453338623046875, -350.787353515625, -14.72015380859375, 39.8712158203125, 94.072998046875, 0.10909339785575867, 0.40651601552963257, -0.7682075500488281, 0.2723081409931183, 0.8124860525131226, 9.772503852844238, 994.9099731445312, 0.018163764849305153, -0.04430678114295006, -0.7413545846939087, 95.0, -5.16428810220007, -1.8635078320112588, android.sensor.light
1551585042185, 0.16790771484375, 0.5216522216796875, 10.645462036132812, 0.1503448486328125, 0.016326904296875, 0.0453338623046875, -350.24566650390625, -11.6302490234375, 40.68145751953125, 94.072998046875, 0.10909339785575867, 0.40651601552963257, -0.7682075500488281, 0.2723081409931183, 0.8124860525131226, 9.772503852844238, 994.9099731445312, 0.018163764849305153, -0.04430678114295006, -0.7413545846939087, 95.0, -5.16428810220007, -1.8635078320112588, android.sensor.magnetic_field
1551585042206, 0.16790771484375, 0.5216522216796875, 10.645462036132812, 0.1973876953125, -0.119720458984375, 0.223907470703125, -350.24566650390625, -11.6302490234375, 40.68145751953125, 94.072998046875, 0.10909339785575867, 0.40651601552963257, -0.7682075500488281, 0.2723081409931183, 0.8124860525131226, 9.772503852844238, 994.9099731445312, 0.018163764849305153, -0.04430678114295006, -0.7413545846939087, 95.0, -5.16428810220007, -1.8635078320112588, android.sensor.gyroscope
1551585042210, 0.4560699462890625, 0.614471435546875, 10.099227905273438, 0.1973876953125, -0.119720458984375, 0.223907470703125, -350.24566650390625, -11.6302490234375, 40.68145751953125, 94.072998046875, 0.10909339785575867, 0.40651601552963257, -0.7682075500488281, 0.2723081409931183, 0.8124860525131226, 9.772503852844238, 994.9099731445312, 0.018163764849305153, -0.04430678114295006, -0.7413545846939087, 95.0, -5.16428810220007, -1.8635078320112588, android.sensor.accelerometer
1551585042210, 0.4560699462890625, 0.614471435546875, 10.099227905273438, 0.1973876953125, -0.119720458984375, 0.223907470703125, -350.24566650390625, -11.6302490234375, 40.68145751953125, 94.072998046875, 0.10909339785575867, 0.40651601552963257, -0.7682075500488281, 0.40596693754196167, 0.9932395815849304, 9.751142501831055, 994.9099731445312, 0.018163764849305153, -0.04430678114295006, -0.7413545846939087, 95.0, -5.16428810220007, -1.8635078320112588, android.sensor.gravity
1551585042227, 0.4560699462890625, 0.614471435546875, 10.099227905273438, 0.1973876953125, -0.119720458984375, 0.223907470703125, -350.24566650390625, -11.6302490234375, 40.68145751953125, 94.072998046875, -0.15044566988945007, 0.4746389389038086, -0.33321475982666016, 0.40596693754196167, 0.9932395815849304, 9.751142501831055, 994.9099731445312, 0.018163764849305153, -0.04430678114295006, -0.7413545846939087, 95.0, -5.16428810220007, -1.8635078320112588, android.sensor.linear_acceleration
1551585042238, 0.4560699462890625, 0.614471435546875, 10.099227905273438, 0.1973876953125, -0.119720458984375, 0.223907470703125, -350.24566650390625, -11.6302490234375, 40.68145751953125, 94.072998046875, -0.15044566988945007, 0.4746389389038086, -0.33321475982666016, 0.40596693754196167, 0.9932395815849304, 9.751142501831055, 994.9099731445312, 0.021241459995508194, -0.057690247893333435, -0.7333250045776367, 94.0, -6.509981363986091, -2.709632306722673, android.sensor.rotation_vector
1551585042239, 0.4560699462890625, 0.614471435546875, 10.099227905273438, 0.1973876953125, -0.119720458984375, 0.223907470703125, -350.24566650390625, -11.6302490234375, 40.68145751953125, 94.072998046875, -0.15044566988945007, 0.4746389389038086, -0.33321475982666016, 0.40596693754196167, 0.9932395815849304, 9.751142501831055, 994.9099731445312, 0.021241459995508194, -0.057690247893333435, -0.7333250045776367, 94.0, -6.509981363986091, -2.709632306722673, android.sensor.orientation
1551585042252, 0.4560699462890625, 0.614471435546875, 10.099227905273438, 0.1973876953125, -0.119720458984375, 0.223907470703125, -350.24566650390625, -11.6302490234375, 40.68145751953125, 94.072998046875, -0.15044566988945007, 0.4746389389038086, -0.33321475982666016, 0.40596693754196167, 0.9932395815849304, 9.751142501831055, 994.8997802734375, 0.021241459995508194, -0.057690247893333435, -0.7333250045776367, 94.0, -6.509981363986091, -2.709632306722673, android.sensor.pressure
1551585042287, 0.4560699462890625, 0.614471435546875, 10.099227905273438, 0.1973876953125, -0.119720458984375, 0.223907470703125, -348.236083984375, -7.3699951171875, 39.1815185546875, 94.072998046875, -0.15044566988945007, 0.4746389389038086, -0.33321475982666016, 0.40596693754196167, 0.9932395815849304, 9.751142501831055, 994.8997802734375, 0.021241459995508194, -0.057690247893333435, -0.7333250045776367, 94.0, -6.509981363986091, -2.709632306722673, android.sensor.magnetic_field
1551585042307, 0.4560699462890625, 0.614471435546875, 10.099227905273438, 0.360137939453125, -0.1198272705078125, 0.2087860107421875, -348.236083984375, -7.3699951171875, 39.1815185546875, 94.072998046875, -0.15044566988945007, 0.4746389389038086, -0.33321475982666016, 0.40596693754196167, 0.9932395815849304, 9.751142501831055, 994.8997802734375, 0.021241459995508194, -0.057690247893333435, -0.7333250045776367, 94.0, -6.509981363986091, -2.709632306722673, android.sensor.gyroscope
1551585042307, 0.4560699462890625, 0.614471435546875, 10.099227905273438, 0.360137939453125, -0.1198272705078125, 0.2087860107421875, -348.236083984375, -7.3699951171875, 39.1815185546875, 94.072998046875, -0.15044566988945007, 0.4746389389038086, -0.33321475982666016, 0.5433245897293091, 1.3255865573883057, 9.704830169677734, 994.8997802734375, 0.021241459995508194, -0.057690247893333435, -0.7333250045776367, 94.0, -6.509981363986091, -2.709632306722673, android.sensor.gravity
1551585042307, 0.35443115234375, 0.81390380859375, 8.9017333984375, 0.360137939453125, -0.1198272705078125, 0.2087860107421875, -348.236083984375, -7.3699951171875, 39.1815185546875, 94.072998046875, -0.15044566988945007, 0.4746389389038086, -0.33321475982666016, 0.5433245897293091, 1.3255865573883057, 9.704830169677734, 994.8997802734375, 0.021241459995508194, -0.057690247893333435, -0.7333250045776367, 94.0, -6.509981363986091, -2.709632306722673, android.sensor.accelerometer
1551585042324, 0.35443115234375, 0.81390380859375, 8.9017333984375, 0.360137939453125, -0.1198272705078125, 0.2087860107421875, -348.236083984375, -7.3699951171875, 39.1815185546875, 94.072998046875, 0.2061302661895752, 0.5857887268066406, 0.6960029602050781, 0.5433245897293091, 1.3255865573883057, 9.704830169677734, 994.8997802734375, 0.021241459995508194, -0.057690247893333435, -0.7333250045776367, 94.0, -6.509981363986091, -2.709632306722673, android.sensor.linear_acceleration
1551585042333, 0.35443115234375, 0.81390380859375, 8.9017333984375, 0.360137939453125, -0.1198272705078125, 0.2087860107421875, -348.236083984375, -7.3699951171875, 39.1815185546875, 94.072998046875, 0.2061302661895752, 0.5857887268066406, 0.6960029602050781, 0.5433245897293091, 1.3255865573883057, 9.704830169677734, 994.8997802734375, 0.026926016435027122, -0.07246896624565125, -0.7266138195991516, 93.0, -8.168095162371312, -3.46449627605602, android.sensor.rotation_vector
1551585042336, 0.35443115234375, 0.81390380859375, 8.9017333984375, 0.360137939453125, -0.1198272705078125, 0.2087860107421875, -348.236083984375, -7.3699951171875, 39.1815185546875, 94.072998046875, 0.2061302661895752, 0.5857887268066406, 0.6960029602050781, 0.5433245897293091, 1.3255865573883057, 9.704830169677734, 994.8997802734375, 0.026926016435027122, -0.07246896624565125, -0.7266138195991516, 93.0, -8.168095162371312, -3.46449627605602, android.sensor.orientation
1551585042353, 0.35443115234375, 0.81390380859375, 8.9017333984375, 0.360137939453125, -0.1198272705078125, 0.2087860107421875, -348.236083984375, -7.3699951171875, 39.1815185546875, 94.072998046875, 0.2061302661895752, 0.5857887268066406, 0.6960029602050781, 0.5433245897293091, 1.3255865573883057, 9.704830169677734, 994.9039916992188, 0.026926016435027122, -0.07246896624565125, -0.7266138195991516, 93.0, -8.168095162371312, -3.46449627605602, android.sensor.pressure
1551585042383, 0.35443115234375, 0.81390380859375, 8.9017333984375, 0.360137939453125, -0.1198272705078125, 0.2087860107421875, -346.97723388671875, -5.2703857421875, 38.55133056640625, 94.072998046875, 0.2061302661895752, 0.5857887268066406, 0.6960029602050781, 0.5433245897293091, 1.3255865573883057, 9.704830169677734, 994.9039916992188, 0.026926016435027122, -0.07246896624565125, -0.7266138195991516, 93.0, -8.168095162371312, -3.46449627605602, android.sensor.magnetic_field
1551585042405, 0.35443115234375, 0.81390380859375, 8.9017333984375, 0.12493896484375, -0.0320281982421875, 0.0540924072265625, -346.97723388671875, -5.2703857421875, 38.55133056640625, 94.072998046875, 0.2061302661895752, 0.5857887268066406, 0.6960029602050781, 0.5433245897293091, 1.3255865573883057, 9.704830169677734, 994.9039916992188, 0.026926016435027122, -0.07246896624565125, -0.7266138195991516, 93.0, -8.168095162371312, -3.46449627605602, android.sensor.gyroscope
1551585042405, 0.35443115234375, 0.81390380859375, 8.9017333984375, 0.12493896484375, -0.0320281982421875, 0.0540924072265625, -346.97723388671875, -5.2703857421875, 38.55133056640625, 94.072998046875, 0.2061302661895752, 0.5857887268066406, 0.6960029602050781, 0.580651044845581, 1.4405665397644043, 9.686264991760254, 994.9039916992188, 0.026926016435027122, -0.07246896624565125, -0.7266138195991516, 93.0, -8.168095162371312, -3.46449627605602, android.sensor.gravity
1551585042406, -0.0264129638671875, 0.5942840576171875, 9.44818115234375, 0.12493896484375, -0.0320281982421875, 0.0540924072265625, -346.97723388671875, -5.2703857421875, 38.55133056640625, 94.072998046875, 0.2061302661895752, 0.5857887268066406, 0.6960029602050781, 0.580651044845581, 1.4405665397644043, 9.686264991760254, 994.9039916992188, 0.026926016435027122, -0.07246896624565125, -0.7266138195991516, 93.0, -8.168095162371312, -3.46449627605602, android.sensor.accelerometer
1551585042424, -0.0264129638671875, 0.5942840576171875, 9.44818115234375, 0.12493896484375, -0.0320281982421875, 0.0540924072265625, -346.97723388671875, -5.2703857421875, 38.55133056640625, 94.072998046875, 0.5948662757873535, 0.9182740449905396, 0.080902099609375, 0.580651044845581, 1.4405665397644043, 9.686264991760254, 994.9039916992188, 0.026926016435027122, -0.07246896624565125, -0.7266138195991516, 93.0, -8.168095162371312, -3.46449627605602, android.sensor.linear_acceleration
1551585042430, -0.0264129638671875, 0.5942840576171875, 9.44818115234375, 0.12493896484375, -0.0320281982421875, 0.0540924072265625, -346.97723388671875, -5.2703857421875, 38.55133056640625, 94.072998046875, 0.5948662757873535, 0.9182740449905396, 0.080902099609375, 0.580651044845581, 1.4405665397644043, 9.686264991760254, 994.9039916992188, 0.029549013823270798, -0.07631877809762955, -0.7255406379699707, 93.0, -8.6921960679539, -3.5622066144446953, android.sensor.rotation_vector
1551585042439, -0.0264129638671875, 0.5942840576171875, 9.44818115234375, 0.12493896484375, -0.0320281982421875, 0.0540924072265625, -346.97723388671875, -5.2703857421875, 38.55133056640625, 94.072998046875, 0.5948662757873535, 0.9182740449905396, 0.080902099609375, 0.580651044845581, 1.4405665397644043, 9.686264991760254, 994.9039916992188, 0.029549013823270798, -0.07631877809762955, -0.7255406379699707, 93.0, -8.6921960679539, -3.5622066144446953, android.sensor.orientation
1551585042451, -0.0264129638671875, 0.5942840576171875, 9.44818115234375, 0.12493896484375, -0.0320281982421875, 0.0540924072265625, -346.97723388671875, -5.2703857421875, 38.55133056640625, 94.072998046875, 0.5948662757873535, 0.9182740449905396, 0.080902099609375, 0.580651044845581, 1.4405665397644043, 9.686264991760254, 994.9039916992188, 0.029549013823270798, -0.07631877809762955, -0.7255406379699707, 93.0, -8.6921960679539, -3.5622066144446953, android.sensor.pressure
1551585042476, -0.0264129638671875, 0.5942840576171875, 9.44818115234375, 0.12493896484375, -0.0320281982421875, 0.0540924072265625, -345.86639404296875, -2.6611328125, 37.921142578125, 94.072998046875, 0.5948662757873535, 0.9182740449905396, 0.080902099609375, 0.580651044845581, 1.4405665397644043, 9.686264991760254, 994.9039916992188, 0.029549013823270798, -0.07631877809762955, -0.7255406379699707, 93.0, -8.6921960679539, -3.5622066144446953, android.sensor.magnetic_field
1551585042496, -0.0264129638671875, 0.5942840576171875, 9.44818115234375, -0.193939208984375, 0.0424957275390625, -0.0653839111328125, -345.86639404296875, -2.6611328125, 37.921142578125, 94.072998046875, 0.5948662757873535, 0.9182740449905396, 0.080902099609375, 0.580651044845581, 1.4405665397644043, 9.686264991760254, 994.9039916992188, 0.029549013823270798, -0.07631877809762955, -0.7255406379699707, 93.0, -8.6921960679539, -3.5622066144446953, android.sensor.gyroscope
1551585042501, -0.3490142822265625, 0.724639892578125, 9.676834106445312, -0.193939208984375, 0.0424957275390625, -0.0653839111328125, -345.86639404296875, -2.6611328125, 37.921142578125, 94.072998046875, 0.5948662757873535, 0.9182740449905396, 0.080902099609375, 0.580651044845581, 1.4405665397644043, 9.686264991760254, 994.9039916992188, 0.029549013823270798, -0.07631877809762955, -0.7255406379699707, 93.0, -8.6921960679539, -3.5622066144446953, android.sensor.accelerometer
1551585042501, -0.3490142822265625, 0.724639892578125, 9.676834106445312, -0.193939208984375, 0.0424957275390625, -0.0653839111328125, -345.86639404296875, -2.6611328125, 37.921142578125, 94.072998046875, 0.5948662757873535, 0.9182740449905396, 0.080902099609375, 0.5313670039176941, 1.2601150274276733, 9.71420955657959, 994.9039916992188, 0.029549013823270798, -0.07631877809762955, -0.7255406379699707, 93.0, -8.6921960679539, -3.5622066144446953, android.sensor.gravity
1551585042515, -0.3490142822265625, 0.724639892578125, 9.676834106445312, -0.193939208984375, 0.0424957275390625, -0.0653839111328125, -345.86639404296875, -2.6611328125, 37.921142578125, 94.072998046875, 0.8119784593582153, 0.5982503890991211, -0.191131591796875, 0.5313670039176941, 1.2601150274276733, 9.71420955657959, 994.9039916992188, 0.029549013823270798, -0.07631877809762955, -0.7255406379699707, 93.0, -8.6921960679539, -3.5622066144446953, android.sensor.linear_acceleration
1551585042525, -0.3490142822265625, 0.724639892578125, 9.676834106445312, -0.193939208984375, 0.0424957275390625, -0.0653839111328125, -345.86639404296875, -2.6611328125, 37.921142578125, 94.072998046875, 0.8119784593582153, 0.5982503890991211, -0.191131591796875, 0.5313670039176941, 1.2601150274276733, 9.71420955657959, 994.9039916992188, 0.022474268451333046, -0.06364966928958893, -0.7290692925453186, 93.0, -7.089789292439304, -3.1155005033382253, android.sensor.rotation_vector
1551585042530, -0.3490142822265625, 0.724639892578125, 9.676834106445312, -0.193939208984375, 0.0424957275390625, -0.0653839111328125, -345.86639404296875, -2.6611328125, 37.921142578125, 94.072998046875, 0.8119784593582153, 0.5982503890991211, -0.191131591796875, 0.5313670039176941, 1.2601150274276733, 9.71420955657959, 994.9039916992188, 0.022474268451333046, -0.06364966928958893, -0.7290692925453186, 93.0, -7.089789292439304, -3.1155005033382253, android.sensor.orientation
1551585042545, -0.3490142822265625, 0.724639892578125, 9.676834106445312, -0.193939208984375, 0.0424957275390625, -0.0653839111328125, -345.86639404296875, -2.6611328125, 37.921142578125, 94.072998046875, 0.8119784593582153, 0.5982503890991211, -0.191131591796875, 0.5313670039176941, 1.2601150274276733, 9.71420955657959, 994.8997802734375, 0.022474268451333046, -0.06364966928958893, -0.7290692925453186, 93.0, -7.089789292439304, -3.1155005033382253, android.sensor.pressure
1551585042579, -0.3490142822265625, 0.724639892578125, 9.676834106445312, -0.193939208984375, 0.0424957275390625, -0.0653839111328125, -345.71685791015625, -1.31072998046875, 38.8519287109375, 94.072998046875, 0.8119784593582153, 0.5982503890991211, -0.191131591796875, 0.5313670039176941, 1.2601150274276733, 9.71420955657959, 994.8997802734375, 0.022474268451333046, -0.06364966928958893, -0.7290692925453186, 93.0, -7.089789292439304, -3.1155005033382253, android.sensor.magnetic_field
1551585042597, -0.3490142822265625, 0.724639892578125, 9.676834106445312, -0.2512054443359375, 0.104949951171875, 0.0232696533203125, -345.71685791015625, -1.31072998046875, 38.8519287109375, 94.072998046875, 0.8119784593582153, 0.5982503890991211, -0.191131591796875, 0.5313670039176941, 1.2601150274276733, 9.71420955657959, 994.8997802734375, 0.022474268451333046, -0.06364966928958893, -0.7290692925453186, 93.0, -7.089789292439304, -3.1155005033382253, android.sensor.gyroscope
1551585042600, -0.367401123046875, 0.4850921630859375, 9.881423950195312, -0.2512054443359375, 0.104949951171875, 0.0232696533203125, -345.71685791015625, -1.31072998046875, 38.8519287109375, 94.072998046875, 0.8119784593582153, 0.5982503890991211, -0.191131591796875, 0.5313670039176941, 1.2601150274276733, 9.71420955657959, 994.8997802734375, 0.022474268451333046, -0.06364966928958893, -0.7290692925453186, 93.0, -7.089789292439304, -3.1155005033382253, android.sensor.accelerometer
1551585042600, -0.367401123046875, 0.4850921630859375, 9.881423950195312, -0.2512054443359375, 0.104949951171875, 0.0232696533203125, -345.71685791015625, -1.31072998046875, 38.8519287109375, 94.072998046875, 0.8119784593582153, 0.5982503890991211, -0.191131591796875, 0.4333072900772095, 1.0204106569290161, 9.747159004211426, 994.8997802734375, 0.022474268451333046, -0.06364966928958893, -0.7290692925453186, 93.0, -7.089789292439304, -3.1155005033382253, android.sensor.gravity
1551585042617, -0.367401123046875, 0.4850921630859375, 9.881423950195312, -0.2512054443359375, 0.104949951171875, 0.0232696533203125, -345.71685791015625, -1.31072998046875, 38.8519287109375, 94.072998046875, 0.7127796411514282, 0.5225100517272949, -0.14722537994384766, 0.4333072900772095, 1.0204106569290161, 9.747159004211426, 994.8997802734375, 0.022474268451333046, -0.06364966928958893, -0.7290692925453186, 93.0, -7.089789292439304, -3.1155005033382253, android.sensor.linear_acceleration
1551585042629, -0.367401123046875, 0.4850921630859375, 9.881423950195312, -0.2512054443359375, 0.104949951171875, 0.0232696533203125, -345.71685791015625, -1.31072998046875, 38.8519287109375, 94.072998046875, 0.7127796411514282, 0.5225100517272949, -0.14722537994384766, 0.4333072900772095, 1.0204106569290161, 9.747159004211426, 994.8997802734375, 0.01871969923377037, -0.05371486768126488, -0.7265160083770752, 93.0, -5.951557904050542, -2.6719761931679233, android.sensor.rotation_vector
1551585042630, -0.367401123046875, 0.4850921630859375, 9.881423950195312, -0.2512054443359375, 0.104949951171875, 0.0232696533203125, -345.71685791015625, -1.31072998046875, 38.8519287109375, 94.072998046875, 0.7127796411514282, 0.5225100517272949, -0.14722537994384766, 0.4333072900772095, 1.0204106569290161, 9.747159004211426, 994.8997802734375, 0.01871969923377037, -0.05371486768126488, -0.7265160083770752, 93.0, -5.951557904050542, -2.6719761931679233, android.sensor.orientation
1551585042650, -0.367401123046875, 0.4850921630859375, 9.881423950195312, -0.2512054443359375, 0.104949951171875, 0.0232696533203125, -345.71685791015625, -1.31072998046875, 38.8519287109375, 94.072998046875, 0.7127796411514282, 0.5225100517272949, -0.14722537994384766, 0.4333072900772095, 1.0204106569290161, 9.747159004211426, 994.8941650390625, 0.01871969923377037, -0.05371486768126488, -0.7265160083770752, 93.0, -5.951557904050542, -2.6719761931679233, android.sensor.pressure
1551585042678, -0.367401123046875, 0.4850921630859375, 9.881423950195312, -0.2512054443359375, 0.104949951171875, 0.0232696533203125, -345.9869384765625, 0.0396728515625, 38.73138427734375, 94.072998046875, 0.7127796411514282, 0.5225100517272949, -0.14722537994384766, 0.4333072900772095, 1.0204106569290161, 9.747159004211426, 994.8941650390625, 0.01871969923377037, -0.05371486768126488, -0.7265160083770752, 93.0, -5.951557904050542, -2.6719761931679233, android.sensor.magnetic_field
1551585042697, -0.367401123046875, 0.4850921630859375, 9.881423950195312, -0.1477813720703125, -0.0056304931640625, 0.16619873046875, -345.9869384765625, 0.0396728515625, 38.73138427734375, 94.072998046875, 0.7127796411514282, 0.5225100517272949, -0.14722537994384766, 0.4333072900772095, 1.0204106569290161, 9.747159004211426, 994.8941650390625, 0.01871969923377037, -0.05371486768126488, -0.7265160083770752, 93.0, -5.951557904050542, -2.6719761931679233, android.sensor.gyroscope
1551585042698, -0.367401123046875, 0.4850921630859375, 9.881423950195312, -0.1477813720703125, -0.0056304931640625, 0.16619873046875, -345.9869384765625, 0.0396728515625, 38.73138427734375, 94.072998046875, 0.7127796411514282, 0.5225100517272949, -0.14722537994384766, 0.4540097117424011, 0.8726472854614258, 9.760557174682617, 994.8941650390625, 0.01871969923377037, -0.05371486768126488, -0.7265160083770752, 93.0, -5.951557904050542, -2.6719761931679233, android.sensor.gravity
1551585042698, 0.0676727294921875, 1.0577392578125, 9.5941162109375, -0.1477813720703125, -0.0056304931640625, 0.16619873046875, -345.9869384765625, 0.0396728515625, 38.73138427734375, 94.072998046875, 0.7127796411514282, 0.5225100517272949, -0.14722537994384766, 0.4540097117424011, 0.8726472854614258, 9.760557174682617, 994.8941650390625, 0.01871969923377037, -0.05371486768126488, -0.7265160083770752, 93.0, -5.951557904050542, -2.6719761931679233, android.sensor.accelerometer
1551585042716, 0.0676727294921875, 1.0577392578125, 9.5941162109375, -0.1477813720703125, -0.0056304931640625, 0.16619873046875, -345.9869384765625, 0.0396728515625, 38.73138427734375, 94.072998046875, 0.24319428205490112, -0.19772052764892578, 0.03042316436767578, 0.4540097117424011, 0.8726472854614258, 9.760557174682617, 994.8941650390625, 0.01871969923377037, -0.05371486768126488, -0.7265160083770752, 93.0, -5.951557904050542, -2.6719761931679233, android.sensor.linear_acceleration
1551585042728, 0.0676727294921875, 1.0577392578125, 9.5941162109375, -0.1477813720703125, -0.0056304931640625, 0.16619873046875, -345.9869384765625, 0.0396728515625, 38.73138427734375, 94.072998046875, 0.24319428205490112, -0.19772052764892578, 0.03042316436767578, 0.4540097117424011, 0.8726472854614258, 9.760557174682617, 994.8941650390625, 0.012966930866241455, -0.04820336773991585, -0.7222377061843872, 92.0, -5.020883584820598, -2.7489005583649573, android.sensor.rotation_vector
1551585042729, 0.0676727294921875, 1.0577392578125, 9.5941162109375, -0.1477813720703125, -0.0056304931640625, 0.16619873046875, -345.9869384765625, 0.0396728515625, 38.73138427734375, 94.072998046875, 0.24319428205490112, -0.19772052764892578, 0.03042316436767578, 0.4540097117424011, 0.8726472854614258, 9.760557174682617, 994.8941650390625, 0.012966930866241455, -0.04820336773991585, -0.7222377061843872, 92.0, -5.020883584820598, -2.7489005583649573, android.sensor.orientation
1551585042748, 0.0676727294921875, 1.0577392578125, 9.5941162109375, -0.1477813720703125, -0.0056304931640625, 0.16619873046875, -345.9869384765625, 0.0396728515625, 38.73138427734375, 94.072998046875, 0.24319428205490112, -0.19772052764892578, 0.03042316436767578, 0.4540097117424011, 0.8726472854614258, 9.760557174682617, 994.8941650390625, 0.012966930866241455, -0.04820336773991585, -0.7222377061843872, 92.0, -5.020883584820598, -2.7489005583649573, android.sensor.pressure
1551585042770, 0.0676727294921875, 1.0577392578125, 9.5941162109375, -0.1477813720703125, -0.0056304931640625, 0.16619873046875, -345.35675048828125, 1.89971923828125, 39.2120361328125, 94.072998046875, 0.24319428205490112, -0.19772052764892578, 0.03042316436767578, 0.4540097117424011, 0.8726472854614258, 9.760557174682617, 994.8941650390625, 0.012966930866241455, -0.04820336773991585, -0.7222377061843872, 92.0, -5.020883584820598, -2.7489005583649573, android.sensor.magnetic_field
1551585042793, 0.0676727294921875, 1.0577392578125, 9.5941162109375, -0.1450653076171875, -0.01470947265625, 0.090606689453125, -345.35675048828125, 1.89971923828125, 39.2120361328125, 94.072998046875, 0.24319428205490112, -0.19772052764892578, 0.03042316436767578, 0.4540097117424011, 0.8726472854614258, 9.760557174682617, 994.8941650390625, 0.012966930866241455, -0.04820336773991585, -0.7222377061843872, 92.0, -5.020883584820598, -2.7489005583649573, android.sensor.gyroscope
1551585042793, 0.106597900390625, 1.1363067626953125, 9.665756225585938, -0.1450653076171875, -0.01470947265625, 0.090606689453125, -345.35675048828125, 1.89971923828125, 39.2120361328125, 94.072998046875, 0.24319428205490112, -0.19772052764892578, 0.03042316436767578, 0.4540097117424011, 0.8726472854614258, 9.760557174682617, 994.8941650390625, 0.012966930866241455, -0.04820336773991585, -0.7222377061843872, 92.0, -5.020883584820598, -2.7489005583649573, android.sensor.accelerometer
1551585042793, 0.106597900390625, 1.1363067626953125, 9.665756225585938, -0.1450653076171875, -0.01470947265625, 0.090606689453125, -345.35675048828125, 1.89971923828125, 39.2120361328125, 94.072998046875, 0.24319428205490112, -0.19772052764892578, 0.03042316436767578, 0.47484490275382996, 0.7305006384849548, 9.771233558654785, 994.8941650390625, 0.012966930866241455, -0.04820336773991585, -0.7222377061843872, 92.0, -5.020883584820598, -2.7489005583649573, android.sensor.gravity
1551585042811, 0.106597900390625, 1.1363067626953125, 9.665756225585938, -0.1450653076171875, -0.01470947265625, 0.090606689453125, -345.35675048828125, 1.89971923828125, 39.2120361328125, 94.072998046875, 0.35083678364753723, -0.43342506885528564, -0.05720329284667969, 0.47484490275382996, 0.7305006384849548, 9.771233558654785, 994.8941650390625, 0.012966930866241455, -0.04820336773991585, -0.7222377061843872, 92.0, -5.020883584820598, -2.7489005583649573, android.sensor.linear_acceleration
1551585042820, 0.106597900390625, 1.1363067626953125, 9.665756225585938, -0.1450653076171875, -0.01470947265625, 0.090606689453125, -345.35675048828125, 1.89971923828125, 39.2120361328125, 94.072998046875, 0.35083678364753723, -0.43342506885528564, -0.05720329284667969, 0.47484490275382996, 0.7305006384849548, 9.771233558654785, 994.8941650390625, 0.007093033753335476, -0.045503467321395874, -0.719268798828125, 91.0, -4.318016138091266, -3.040010477866894, android.sensor.rotation_vector
1551585042826, 0.106597900390625, 1.1363067626953125, 9.665756225585938, -0.1450653076171875, -0.01470947265625, 0.090606689453125, -345.35675048828125, 1.89971923828125, 39.2120361328125, 94.072998046875, 0.35083678364753723, -0.43342506885528564, -0.05720329284667969, 0.47484490275382996, 0.7305006384849548, 9.771233558654785, 994.8941650390625, 0.007093033753335476, -0.045503467321395874, -0.719268798828125, 91.0, -4.318016138091266, -3.040010477866894, android.sensor.orientation
1551585042848, 0.106597900390625, 1.1363067626953125, 9.665756225585938, -0.1450653076171875, -0.01470947265625, 0.090606689453125, -345.35675048828125, 1.89971923828125, 39.2120361328125, 94.072998046875, 0.35083678364753723, -0.43342506885528564, -0.05720329284667969, 0.47484490275382996, 0.7305006384849548, 9.771233558654785, 994.9048461914062, 0.007093033753335476, -0.045503467321395874, -0.719268798828125, 91.0, -4.318016138091266, -3.040010477866894, android.sensor.pressure
1551585042863, 0.106597900390625, 1.1363067626953125, 9.665756225585938, -0.1450653076171875, -0.01470947265625, 0.090606689453125, -345.35675048828125, 1.89971923828125, 39.2120361328125, 107.63299560546875, 0.35083678364753723, -0.43342506885528564, -0.05720329284667969, 0.47484490275382996, 0.7305006384849548, 9.771233558654785, 994.9048461914062, 0.007093033753335476, -0.045503467321395874, -0.719268798828125, 91.0, -4.318016138091266, -3.040010477866894, android.sensor.light
1551585042868, 0.106597900390625, 1.1363067626953125, 9.665756225585938, -0.1450653076171875, -0.01470947265625, 0.090606689453125, -345.50628662109375, 4.53948974609375, 38.8214111328125, 107.63299560546875, 0.35083678364753723, -0.43342506885528564, -0.05720329284667969, 0.47484490275382996, 0.7305006384849548, 9.771233558654785, 994.9048461914062, 0.007093033753335476, -0.045503467321395874, -0.719268798828125, 91.0, -4.318016138091266, -3.040010477866894, android.sensor.magnetic_field
1551585042889, 0.106597900390625, 1.1363067626953125, 9.665756225585938, 0.028106689453125, -0.1154632568359375, 0.0306243896484375, -345.50628662109375, 4.53948974609375, 38.8214111328125, 107.63299560546875, 0.35083678364753723, -0.43342506885528564, -0.05720329284667969, 0.47484490275382996, 0.7305006384849548, 9.771233558654785, 994.9048461914062, 0.007093033753335476, -0.045503467321395874, -0.719268798828125, 91.0, -4.318016138091266, -3.040010477866894, android.sensor.gyroscope
1551585042894, -0.0238189697265625, 1.567230224609375, 9.839111328125, 0.028106689453125, -0.1154632568359375, 0.0306243896484375, -345.50628662109375, 4.53948974609375, 38.8214111328125, 107.63299560546875, 0.35083678364753723, -0.43342506885528564, -0.05720329284667969, 0.47484490275382996, 0.7305006384849548, 9.771233558654785, 994.9048461914062, 0.007093033753335476, -0.045503467321395874, -0.719268798828125, 91.0, -4.318016138091266, -3.040010477866894, android.sensor.accelerometer
1551585042894, -0.0238189697265625, 1.567230224609375, 9.839111328125, 0.028106689453125, -0.1154632568359375, 0.0306243896484375, -345.50628662109375, 4.53948974609375, 38.8214111328125, 107.63299560546875, 0.35083678364753723, -0.43342506885528564, -0.05720329284667969, 0.5867383480072021, 0.7563986778259277, 9.76318073272705, 994.9048461914062, 0.007093033753335476, -0.045503467321395874, -0.719268798828125, 91.0, -4.318016138091266, -3.040010477866894, android.sensor.gravity
1551585042910, -0.0238189697265625, 1.567230224609375, 9.839111328125, 0.028106689453125, -0.1154632568359375, 0.0306243896484375, -345.50628662109375, 4.53948974609375, 38.8214111328125, 107.63299560546875, 0.5639264583587646, -0.7244685888290405, -0.16255569458007812, 0.5867383480072021, 0.7563986778259277, 9.76318073272705, 994.9048461914062, 0.007093033753335476, -0.045503467321395874, -0.719268798828125, 91.0, -4.318016138091266, -3.040010477866894, android.sensor.linear_acceleration
1551585042917, -0.0238189697265625, 1.567230224609375, 9.839111328125, 0.028106689453125, -0.1154632568359375, 0.0306243896484375, -345.50628662109375, 4.53948974609375, 38.8214111328125, 107.63299560546875, 0.5639264583587646, -0.7244685888290405, -0.16255569458007812, 0.5867383480072021, 0.7563986778259277, 9.76318073272705, 994.9048461914062, 0.004777519032359123, -0.052797164767980576, -0.7199761271476746, 92.0, -4.7401687863485975, -3.8081595920227387, android.sensor.rotation_vector
1551585042924, -0.0238189697265625, 1.567230224609375, 9.839111328125, 0.028106689453125, -0.1154632568359375, 0.0306243896484375, -345.50628662109375, 4.53948974609375, 38.8214111328125, 107.63299560546875, 0.5639264583587646, -0.7244685888290405, -0.16255569458007812, 0.5867383480072021, 0.7563986778259277, 9.76318073272705, 994.9048461914062, 0.004777519032359123, -0.052797164767980576, -0.7199761271476746, 92.0, -4.7401687863485975, -3.8081595920227387, android.sensor.orientation
1551585042948, -0.0238189697265625, 1.567230224609375, 9.839111328125, 0.028106689453125, -0.1154632568359375, 0.0306243896484375, -345.50628662109375, 4.53948974609375, 38.8214111328125, 107.63299560546875, 0.5639264583587646, -0.7244685888290405, -0.16255569458007812, 0.5867383480072021, 0.7563986778259277, 9.76318073272705, 994.9048461914062, 0.004777519032359123, -0.052797164767980576, -0.7199761271476746, 92.0, -4.7401687863485975, -3.8081595920227387, android.sensor.pressure
1551585042970, -0.0238189697265625, 1.567230224609375, 9.839111328125, 0.028106689453125, -0.1154632568359375, 0.0306243896484375, -345.74737548828125, 7.17926025390625, 38.4307861328125, 107.63299560546875, 0.5639264583587646, -0.7244685888290405, -0.16255569458007812, 0.5867383480072021, 0.7563986778259277, 9.76318073272705, 994.9048461914062, 0.004777519032359123, -0.052797164767980576, -0.7199761271476746, 92.0, -4.7401687863485975, -3.8081595920227387, android.sensor.magnetic_field
1551585042984, -0.0238189697265625, 1.567230224609375, 9.839111328125, -0.1062469482421875, -0.12347412109375, -0.14129638671875, -345.74737548828125, 7.17926025390625, 38.4307861328125, 107.63299560546875, 0.5639264583587646, -0.7244685888290405, -0.16255569458007812, 0.5867383480072021, 0.7563986778259277, 9.76318073272705, 994.9048461914062, 0.004777519032359123, -0.052797164767980576, -0.7199761271476746, 92.0, -4.7401687863485975, -3.8081595920227387, android.sensor.gyroscope
1551585042988, 0.1334686279296875, 1.1631317138671875, 10.226654052734375, -0.1062469482421875, -0.12347412109375, -0.14129638671875, -345.74737548828125, 7.17926025390625, 38.4307861328125, 107.63299560546875, 0.5639264583587646, -0.7244685888290405, -0.16255569458007812, 0.5867383480072021, 0.7563986778259277, 9.76318073272705, 994.9048461914062, 0.004777519032359123, -0.052797164767980576, -0.7199761271476746, 92.0, -4.7401687863485975, -3.8081595920227387, android.sensor.accelerometer
1551585042991, 0.1334686279296875, 1.1631317138671875, 10.226654052734375, -0.1062469482421875, -0.12347412109375, -0.14129638671875, -345.74737548828125, 7.17926025390625, 38.4307861328125, 107.63299560546875, 0.5639264583587646, -0.7244685888290405, -0.16255569458007812, 0.6936669945716858, 0.6642606854438782, 9.762872695922852, 994.9048461914062, 0.004777519032359123, -0.052797164767980576, -0.7199761271476746, 92.0, -4.7401687863485975, -3.8081595920227387, android.sensor.gravity
1551585043003, 0.1334686279296875, 1.1631317138671875, 10.226654052734375, -0.1062469482421875, -0.12347412109375, -0.14129638671875, -345.74737548828125, 7.17926025390625, 38.4307861328125, 107.63299560546875, 0.4400947690010071, -0.41576170921325684, -0.8271865844726562, 0.6936669945716858, 0.6642606854438782, 9.762872695922852, 994.9048461914062, 0.004777519032359123, -0.052797164767980576, -0.7199761271476746, 92.0, -4.7401687863485975, -3.8081595920227387, android.sensor.linear_acceleration
1551585043013, 0.1334686279296875, 1.1631317138671875, 10.226654052734375, -0.1062469482421875, -0.12347412109375, -0.14129638671875, -345.74737548828125, 7.17926025390625, 38.4307861328125, 107.63299560546875, 0.4400947690010071, -0.41576170921325684, -0.8271865844726562, 0.6936669945716858, 0.6642606854438782, 9.762872695922852, 994.9048461914062, -0.006058936472982168, -0.04823474586009979, -0.7253811955451965, 93.0, -3.5349095499833276, -4.311093741367458, android.sensor.rotation_vector
1551585043018, 0.1334686279296875, 1.1631317138671875, 10.226654052734375, -0.1062469482421875, -0.12347412109375, -0.14129638671875, -345.74737548828125, 7.17926025390625, 38.4307861328125, 107.63299560546875, 0.4400947690010071, -0.41576170921325684, -0.8271865844726562, 0.6936669945716858, 0.6642606854438782, 9.762872695922852, 994.9048461914062, -0.006058936472982168, -0.04823474586009979, -0.7253811955451965, 93.0, -3.5349095499833276, -4.311093741367458, android.sensor.orientation
1551585043045, 0.1334686279296875, 1.1631317138671875, 10.226654052734375, -0.1062469482421875, -0.12347412109375, -0.14129638671875, -345.74737548828125, 7.17926025390625, 38.4307861328125, 107.63299560546875, 0.4400947690010071, -0.41576170921325684, -0.8271865844726562, 0.6936669945716858, 0.6642606854438782, 9.762872695922852, 994.9057006835938, -0.006058936472982168, -0.04823474586009979, -0.7253811955451965, 93.0, -3.5349095499833276, -4.311093741367458, android.sensor.pressure
1551585043065, 0.1334686279296875, 1.1631317138671875, 10.226654052734375, -0.1062469482421875, -0.12347412109375, -0.14129638671875, -346.43707275390625, 9.30938720703125, 37.2314453125, 107.63299560546875, 0.4400947690010071, -0.41576170921325684, -0.8271865844726562, 0.6936669945716858, 0.6642606854438782, 9.762872695922852, 994.9057006835938, -0.006058936472982168, -0.04823474586009979, -0.7253811955451965, 93.0, -3.5349095499833276, -4.311093741367458, android.sensor.magnetic_field
1551585043086, 0.1334686279296875, 1.1631317138671875, 10.226654052734375, -0.1695098876953125, -0.0445404052734375, -0.0887451171875, -346.43707275390625, 9.30938720703125, 37.2314453125, 107.63299560546875, 0.4400947690010071, -0.41576170921325684, -0.8271865844726562, 0.6936669945716858, 0.6642606854438782, 9.762872695922852, 994.9057006835938, -0.006058936472982168, -0.04823474586009979, -0.7253811955451965, 93.0, -3.5349095499833276, -4.311093741367458, android.sensor.gyroscope
1551585043087, 0.1334686279296875, 1.1631317138671875, 10.226654052734375, -0.1695098876953125, -0.0445404052734375, -0.0887451171875, -346.43707275390625, 9.30938720703125, 37.2314453125, 107.63299560546875, 0.4400947690010071, -0.41576170921325684, -0.8271865844726562, 0.7311636209487915, 0.5088621377944946, 9.769471168518066, 994.9057006835938, -0.006058936472982168, -0.04823474586009979, -0.7253811955451965, 93.0, -3.5349095499833276, -4.311093741367458, android.sensor.gravity
1551585043089, 0.379669189453125, 0.86968994140625, 10.6500244140625, -0.1695098876953125, -0.0445404052734375, -0.0887451171875, -346.43707275390625, 9.30938720703125, 37.2314453125, 107.63299560546875, 0.4400947690010071, -0.41576170921325684, -0.8271865844726562, 0.7311636209487915, 0.5088621377944946, 9.769471168518066, 994.9057006835938, -0.006058936472982168, -0.04823474586009979, -0.7253811955451965, 93.0, -3.5349095499833276, -4.311093741367458, android.sensor.accelerometer
1551585043105, 0.379669189453125, 0.86968994140625, 10.6500244140625, -0.1695098876953125, -0.0445404052734375, -0.0887451171875, -346.43707275390625, 9.30938720703125, 37.2314453125, 107.63299560546875, 0.31976038217544556, -0.2865588068962097, -0.7544879913330078, 0.7311636209487915, 0.5088621377944946, 9.769471168518066, 994.9057006835938, -0.006058936472982168, -0.04823474586009979, -0.7253811955451965, 93.0, -3.5349095499833276, -4.311093741367458, android.sensor.linear_acceleration
1551585043116, 0.379669189453125, 0.86968994140625, 10.6500244140625, -0.1695098876953125, -0.0445404052734375, -0.0887451171875, -346.43707275390625, 9.30938720703125, 37.2314453125, 107.63299560546875, 0.31976038217544556, -0.2865588068962097, -0.7544879913330078, 0.7311636209487915, 0.5088621377944946, 9.769471168518066, 994.9057006835938, -0.010274531319737434, -0.04909653961658478, -0.7271310687065125, 93.0, -3.28657155572448, -4.721154820359751, android.sensor.rotation_vector
1551585043116, 0.379669189453125, 0.86968994140625, 10.6500244140625, -0.1695098876953125, -0.0445404052734375, -0.0887451171875, -346.43707275390625, 9.30938720703125, 37.2314453125, 107.63299560546875, 0.31976038217544556, -0.2865588068962097, -0.7544879913330078, 0.7311636209487915, 0.5088621377944946, 9.769471168518066, 994.9057006835938, -0.010274531319737434, -0.04909653961658478, -0.7271310687065125, 93.0, -3.28657155572448, -4.721154820359751, android.sensor.orientation
1551585043152, 0.379669189453125, 0.86968994140625, 10.6500244140625, -0.1695098876953125, -0.0445404052734375, -0.0887451171875, -346.43707275390625, 9.30938720703125, 37.2314453125, 107.63299560546875, 0.31976038217544556, -0.2865588068962097, -0.7544879913330078, 0.7311636209487915, 0.5088621377944946, 9.769471168518066, 994.8958129882812, -0.010274531319737434, -0.04909653961658478, -0.7271310687065125, 93.0, -3.28657155572448, -4.721154820359751, android.sensor.pressure
1551585043166, 0.379669189453125, 0.86968994140625, 10.6500244140625, -0.1695098876953125, -0.0445404052734375, -0.0887451171875, -346.58660888671875, 10.71929931640625, 33.9324951171875, 107.63299560546875, 0.31976038217544556, -0.2865588068962097, -0.7544879913330078, 0.7311636209487915, 0.5088621377944946, 9.769471168518066, 994.8958129882812, -0.010274531319737434, -0.04909653961658478, -0.7271310687065125, 93.0, -3.28657155572448, -4.721154820359751, android.sensor.magnetic_field
1551585043186, 0.379669189453125, 0.86968994140625, 10.6500244140625, -0.018707275390625, -0.0816650390625, -0.0821685791015625, -346.58660888671875, 10.71929931640625, 33.9324951171875, 107.63299560546875, 0.31976038217544556, -0.2865588068962097, -0.7544879913330078, 0.7311636209487915, 0.5088621377944946, 9.769471168518066, 994.8958129882812, -0.010274531319737434, -0.04909653961658478, -0.7271310687065125, 93.0, -3.28657155572448, -4.721154820359751, android.sensor.gyroscope
1551585043187, 0.379669189453125, 0.86968994140625, 10.6500244140625, -0.018707275390625, -0.0816650390625, -0.0821685791015625, -346.58660888671875, 10.71929931640625, 33.9324951171875, 107.63299560546875, 0.31976038217544556, -0.2865588068962097, -0.7544879913330078, 0.8050704002380371, 0.4973614811897278, 9.764250755310059, 994.8958129882812, -0.010274531319737434, -0.04909653961658478, -0.7271310687065125, 93.0, -3.28657155572448, -4.721154820359751, android.sensor.gravity
1551585043187, 0.7873992919921875, 0.2512359619140625, 10.207183837890625, -0.018707275390625, -0.0816650390625, -0.0821685791015625, -346.58660888671875, 10.71929931640625, 33.9324951171875, 107.63299560546875, 0.31976038217544556, -0.2865588068962097, -0.7544879913330078, 0.8050704002380371, 0.4973614811897278, 9.764250755310059, 994.8958129882812, -0.010274531319737434, -0.04909653961658478, -0.7271310687065125, 93.0, -3.28657155572448, -4.721154820359751, android.sensor.accelerometer
1551585043205, 0.7873992919921875, 0.2512359619140625, 10.207183837890625, -0.018707275390625, -0.0816650390625, -0.0821685791015625, -346.58660888671875, 10.71929931640625, 33.9324951171875, 107.63299560546875, -0.15549731254577637, 0.6014609932899475, -0.5799322128295898, 0.8050704002380371, 0.4973614811897278, 9.764250755310059, 994.8958129882812, -0.010274531319737434, -0.04909653961658478, -0.7271310687065125, 93.0, -3.28657155572448, -4.721154820359751, android.sensor.linear_acceleration
1551585043215, 0.7873992919921875, 0.2512359619140625, 10.207183837890625, -0.018707275390625, -0.0816650390625, -0.0821685791015625, -346.58660888671875, 10.71929931640625, 33.9324951171875, 107.63299560546875, -0.15549731254577637, 0.6014609932899475, -0.5799322128295898, 0.8050704002380371, 0.4973614811897278, 9.764250755310059, 994.8958129882812, -0.010010248981416225, -0.052011486142873764, -0.7314422130584717, 94.0, -3.581943299825093, -4.906516762923789, android.sensor.rotation_vector
1551585043215, 0.7873992919921875, 0.2512359619140625, 10.207183837890625, -0.018707275390625, -0.0816650390625, -0.0821685791015625, -346.58660888671875, 10.71929931640625, 33.9324951171875, 107.63299560546875, -0.15549731254577637, 0.6014609932899475, -0.5799322128295898, 0.8050704002380371, 0.4973614811897278, 9.764250755310059, 994.8958129882812, -0.010010248981416225, -0.052011486142873764, -0.7314422130584717, 94.0, -3.581943299825093, -4.906516762923789, android.sensor.orientation
1551585043253, 0.7873992919921875, 0.2512359619140625, 10.207183837890625, -0.018707275390625, -0.0816650390625, -0.0821685791015625, -346.58660888671875, 10.71929931640625, 33.9324951171875, 107.63299560546875, -0.15549731254577637, 0.6014609932899475, -0.5799322128295898, 0.8050704002380371, 0.4973614811897278, 9.764250755310059, 994.8958129882812, -0.010010248981416225, -0.052011486142873764, -0.7314422130584717, 94.0, -3.581943299825093, -4.906516762923789, android.sensor.pressure
1551585043263, 0.7873992919921875, 0.2512359619140625, 10.207183837890625, -0.018707275390625, -0.0816650390625, -0.0821685791015625, -347.30682373046875, 12.66937255859375, 30.3619384765625, 107.63299560546875, -0.15549731254577637, 0.6014609932899475, -0.5799322128295898, 0.8050704002380371, 0.4973614811897278, 9.764250755310059, 994.8958129882812, -0.010010248981416225, -0.052011486142873764, -0.7314422130584717, 94.0, -3.581943299825093, -4.906516762923789, android.sensor.magnetic_field
1551585043283, 0.7873992919921875, 0.2512359619140625, 10.207183837890625, 0.3590850830078125, -0.0115966796875, -0.183624267578125, -347.30682373046875, 12.66937255859375, 30.3619384765625, 107.63299560546875, -0.15549731254577637, 0.6014609932899475, -0.5799322128295898, 0.8050704002380371, 0.4973614811897278, 9.764250755310059, 994.8958129882812, -0.010010248981416225, -0.052011486142873764, -0.7314422130584717, 94.0, -3.581943299825093, -4.906516762923789, android.sensor.gyroscope
1551585043283, 0.7873992919921875, 0.2512359619140625, 10.207183837890625, 0.3590850830078125, -0.0115966796875, -0.183624267578125, -347.30682373046875, 12.66937255859375, 30.3619384765625, 107.63299560546875, -0.15549731254577637, 0.6014609932899475, -0.5799322128295898, 0.8043051362037659, 0.8528702259063721, 9.739703178405762, 994.8958129882812, -0.010010248981416225, -0.052011486142873764, -0.7314422130584717, 94.0, -3.581943299825093, -4.906516762923789, android.sensor.gravity
1551585043283, 1.44061279296875, -0.60205078125, 9.478485107421875, 0.3590850830078125, -0.0115966796875, -0.183624267578125, -347.30682373046875, 12.66937255859375, 30.3619384765625, 107.63299560546875, -0.15549731254577637, 0.6014609932899475, -0.5799322128295898, 0.8043051362037659, 0.8528702259063721, 9.739703178405762, 994.8958129882812, -0.010010248981416225, -0.052011486142873764, -0.7314422130584717, 94.0, -3.581943299825093, -4.906516762923789, android.sensor.accelerometer
1551585043303, 1.44061279296875, -0.60205078125, 9.478485107421875, 0.3590850830078125, -0.0115966796875, -0.183624267578125, -347.30682373046875, 12.66937255859375, 30.3619384765625, 107.63299560546875, -0.8020784854888916, 1.4771672487258911, 0.21979808807373047, 0.8043051362037659, 0.8528702259063721, 9.739703178405762, 994.8958129882812, -0.010010248981416225, -0.052011486142873764, -0.7314422130584717, 94.0, -3.581943299825093, -4.906516762923789, android.sensor.linear_acceleration
1551585043310, 1.44061279296875, -0.60205078125, 9.478485107421875, 0.3590850830078125, -0.0115966796875, -0.183624267578125, -347.30682373046875, 12.66937255859375, 30.3619384765625, 107.63299560546875, -0.8020784854888916, 1.4771672487258911, 0.21979808807373047, 0.8043051362037659, 0.8528702259063721, 9.739703178405762, 994.8958129882812, 0.001451520249247551, -0.06254266947507858, -0.7369740605354309, 94.0, -5.401734506053685, -4.727188011830988, android.sensor.rotation_vector
1551585043317, 1.44061279296875, -0.60205078125, 9.478485107421875, 0.3590850830078125, -0.0115966796875, -0.183624267578125, -347.30682373046875, 12.66937255859375, 30.3619384765625, 107.63299560546875, -0.8020784854888916, 1.4771672487258911, 0.21979808807373047, 0.8043051362037659, 0.8528702259063721, 9.739703178405762, 994.8958129882812, 0.001451520249247551, -0.06254266947507858, -0.7369740605354309, 94.0, -5.401734506053685, -4.727188011830988, android.sensor.orientation
1551585043353, 1.44061279296875, -0.60205078125, 9.478485107421875, 0.3590850830078125, -0.0115966796875, -0.183624267578125, -347.30682373046875, 12.66937255859375, 30.3619384765625, 107.63299560546875, -0.8020784854888916, 1.4771672487258911, 0.21979808807373047, 0.8043051362037659, 0.8528702259063721, 9.739703178405762, 994.8980712890625, 0.001451520249247551, -0.06254266947507858, -0.7369740605354309, 94.0, -5.401734506053685, -4.727188011830988, android.sensor.pressure
1551585043357, 1.44061279296875, -0.60205078125, 9.478485107421875, 0.3590850830078125, -0.0115966796875, -0.183624267578125, -348.2666015625, 13.629150390625, 26.28173828125, 107.63299560546875, -0.8020784854888916, 1.4771672487258911, 0.21979808807373047, 0.8043051362037659, 0.8528702259063721, 9.739703178405762, 994.8980712890625, 0.001451520249247551, -0.06254266947507858, -0.7369740605354309, 94.0, -5.401734506053685, -4.727188011830988, android.sensor.magnetic_field
1551585043379, 1.44061279296875, -0.60205078125, 9.478485107421875, -0.0127716064453125, 0.0801544189453125, -0.217437744140625, -348.2666015625, 13.629150390625, 26.28173828125, 107.63299560546875, -0.8020784854888916, 1.4771672487258911, 0.21979808807373047, 0.8043051362037659, 0.8528702259063721, 9.739703178405762, 994.8980712890625, 0.001451520249247551, -0.06254266947507858, -0.7369740605354309, 94.0, -5.401734506053685, -4.727188011830988, android.sensor.gyroscope
1551585043385, 1.5254974365234375, 0.0712738037109375, 9.722747802734375, -0.0127716064453125, 0.0801544189453125, -0.217437744140625, -348.2666015625, 13.629150390625, 26.28173828125, 107.63299560546875, -0.8020784854888916, 1.4771672487258911, 0.21979808807373047, 0.8043051362037659, 0.8528702259063721, 9.739703178405762, 994.8980712890625, 0.001451520249247551, -0.06254266947507858, -0.7369740605354309, 94.0, -5.401734506053685, -4.727188011830988, android.sensor.accelerometer
1551585043386, 1.5254974365234375, 0.0712738037109375, 9.722747802734375, -0.0127716064453125, 0.0801544189453125, -0.217437744140625, -348.2666015625, 13.629150390625, 26.28173828125, 107.63299560546875, -0.8020784854888916, 1.4771672487258911, 0.21979808807373047, 0.7101258039474487, 0.856151819229126, 9.746734619140625, 994.8980712890625, 0.001451520249247551, -0.06254266947507858, -0.7369740605354309, 94.0, -5.401734506053685, -4.727188011830988, android.sensor.gravity
1551585043400, 1.5254974365234375, 0.0712738037109375, 9.722747802734375, -0.0127716064453125, 0.0801544189453125, -0.217437744140625, -348.2666015625, 13.629150390625, 26.28173828125, 107.63299560546875, -0.7921667098999023, 0.743542492389679, -0.13236141204833984, 0.7101258039474487, 0.856151819229126, 9.746734619140625, 994.8980712890625, 0.001451520249247551, -0.06254266947507858, -0.7369740605354309, 94.0, -5.401734506053685, -4.727188011830988, android.sensor.linear_acceleration
1551585043407, 1.5254974365234375, 0.0712738037109375, 9.722747802734375, -0.0127716064453125, 0.0801544189453125, -0.217437744140625, -348.2666015625, 13.629150390625, 26.28173828125, 107.63299560546875, -0.7921667098999023, 0.743542492389679, -0.13236141204833984, 0.7101258039474487, 0.856151819229126, 9.746734619140625, 994.8980712890625, 0.0035095748025923967, -0.058894649147987366, -0.7430914044380188, 96.0, -5.290590679671476, -4.221601187767366, android.sensor.rotation_vector
1551585043413, 1.5254974365234375, 0.0712738037109375, 9.722747802734375, -0.0127716064453125, 0.0801544189453125, -0.217437744140625, -348.2666015625, 13.629150390625, 26.28173828125, 107.63299560546875, -0.7921667098999023, 0.743542492389679, -0.13236141204833984, 0.7101258039474487, 0.856151819229126, 9.746734619140625, 994.8980712890625, 0.0035095748025923967, -0.058894649147987366, -0.7430914044380188, 96.0, -5.290590679671476, -4.221601187767366, android.sensor.orientation
1551585043453, 1.5254974365234375, 0.0712738037109375, 9.722747802734375, -0.0127716064453125, 0.0801544189453125, -0.217437744140625, -348.2666015625, 13.629150390625, 26.28173828125, 107.63299560546875, -0.7921667098999023, 0.743542492389679, -0.13236141204833984, 0.7101258039474487, 0.856151819229126, 9.746734619140625, 994.8980712890625, 0.0035095748025923967, -0.058894649147987366, -0.7430914044380188, 96.0, -5.290590679671476, -4.221601187767366, android.sensor.pressure
1551585043453, 1.5254974365234375, 0.0712738037109375, 9.722747802734375, -0.0127716064453125, 0.0801544189453125, -0.217437744140625, -349.40643310546875, 15.10009765625, 22.11151123046875, 107.63299560546875, -0.7921667098999023, 0.743542492389679, -0.13236141204833984, 0.7101258039474487, 0.856151819229126, 9.746734619140625, 994.8980712890625, 0.0035095748025923967, -0.058894649147987366, -0.7430914044380188, 96.0, -5.290590679671476, -4.221601187767366, android.sensor.magnetic_field
1551585043476, 1.5254974365234375, 0.0712738037109375, 9.722747802734375, 0.04754638671875, 0.0283050537109375, -0.080810546875, -349.40643310546875, 15.10009765625, 22.11151123046875, 107.63299560546875, -0.7921667098999023, 0.743542492389679, -0.13236141204833984, 0.7101258039474487, 0.856151819229126, 9.746734619140625, 994.8980712890625, 0.0035095748025923967, -0.058894649147987366, -0.7430914044380188, 96.0, -5.290590679671476, -4.221601187767366, android.sensor.gyroscope
1551585043482, 0.9930267333984375, 0.7455291748046875, 9.4688720703125, 0.04754638671875, 0.0283050537109375, -0.080810546875, -349.40643310546875, 15.10009765625, 22.11151123046875, 107.63299560546875, -0.7921667098999023, 0.743542492389679, -0.13236141204833984, 0.7101258039474487, 0.856151819229126, 9.746734619140625, 994.8980712890625, 0.0035095748025923967, -0.058894649147987366, -0.7430914044380188, 96.0, -5.290590679671476, -4.221601187767366, android.sensor.accelerometer
1551585043482, 0.9930267333984375, 0.7455291748046875, 9.4688720703125, 0.04754638671875, 0.0283050537109375, -0.080810546875, -349.40643310546875, 15.10009765625, 22.11151123046875, 107.63299560546875, -0.7921667098999023, 0.743542492389679, -0.13236141204833984, 0.6764675378799438, 0.9066765308380127, 9.744559288024902, 994.8980712890625, 0.0035095748025923967, -0.058894649147987366, -0.7430914044380188, 96.0, -5.290590679671476, -4.221601187767366, android.sensor.gravity
1551585043492, 0.9930267333984375, 0.7455291748046875, 9.4688720703125, 0.04754638671875, 0.0283050537109375, -0.080810546875, -349.40643310546875, 15.10009765625, 22.11151123046875, 107.63299560546875, -0.4097113013267517, 0.14594095945358276, 0.18290138244628906, 0.6764675378799438, 0.9066765308380127, 9.744559288024902, 994.8980712890625, 0.0035095748025923967, -0.058894649147987366, -0.7430914044380188, 96.0, -5.290590679671476, -4.221601187767366, android.sensor.linear_acceleration
1551585043501, 0.9930267333984375, 0.7455291748046875, 9.4688720703125, 0.04754638671875, 0.0283050537109375, -0.080810546875, -349.40643310546875, 15.10009765625, 22.11151123046875, 107.63299560546875, -0.4097113013267517, 0.14594095945358276, 0.18290138244628906, 0.6764675378799438, 0.9066765308380127, 9.744559288024902, 994.8980712890625, 0.006721740122884512, -0.05783480405807495, -0.7459514141082764, 96.0, -5.463003437342816, -3.842686198277153, android.sensor.rotation_vector
1551585043506, 0.9930267333984375, 0.7455291748046875, 9.4688720703125, 0.04754638671875, 0.0283050537109375, -0.080810546875, -349.40643310546875, 15.10009765625, 22.11151123046875, 107.63299560546875, -0.4097113013267517, 0.14594095945358276, 0.18290138244628906, 0.6764675378799438, 0.9066765308380127, 9.744559288024902, 994.8980712890625, 0.006721740122884512, -0.05783480405807495, -0.7459514141082764, 96.0, -5.463003437342816, -3.842686198277153, android.sensor.orientation
1551585043546, 0.9930267333984375, 0.7455291748046875, 9.4688720703125, 0.04754638671875, 0.0283050537109375, -0.080810546875, -349.40643310546875, 15.10009765625, 22.11151123046875, 107.63299560546875, -0.4097113013267517, 0.14594095945358276, 0.18290138244628906, 0.6764675378799438, 0.9066765308380127, 9.744559288024902, 994.8941650390625, 0.006721740122884512, -0.05783480405807495, -0.7459514141082764, 96.0, -5.463003437342816, -3.842686198277153, android.sensor.pressure
1551585043550, 0.9930267333984375, 0.7455291748046875, 9.4688720703125, 0.04754638671875, 0.0283050537109375, -0.080810546875, -348.86627197265625, 15.5487060546875, 20.22247314453125, 107.63299560546875, -0.4097113013267517, 0.14594095945358276, 0.18290138244628906, 0.6764675378799438, 0.9066765308380127, 9.744559288024902, 994.8941650390625, 0.006721740122884512, -0.05783480405807495, -0.7459514141082764, 96.0, -5.463003437342816, -3.842686198277153, android.sensor.magnetic_field
1551585043568, 0.9930267333984375, 0.7455291748046875, 9.4688720703125, 0.04754638671875, 0.0283050537109375, -0.080810546875, -348.86627197265625, 15.5487060546875, 20.22247314453125, 130.51499938964844, -0.4097113013267517, 0.14594095945358276, 0.18290138244628906, 0.6764675378799438, 0.9066765308380127, 9.744559288024902, 994.8941650390625, 0.006721740122884512, -0.05783480405807495, -0.7459514141082764, 96.0, -5.463003437342816, -3.842686198277153, android.sensor.light
1551585043569, 0.9930267333984375, 0.7455291748046875, 9.4688720703125, -0.0602874755859375, 0.2281951904296875, -0.14459228515625, -348.86627197265625, 15.5487060546875, 20.22247314453125, 130.51499938964844, -0.4097113013267517, 0.14594095945358276, 0.18290138244628906, 0.6764675378799438, 0.9066765308380127, 9.744559288024902, 994.8941650390625, 0.006721740122884512, -0.05783480405807495, -0.7459514141082764, 96.0, -5.463003437342816, -3.842686198277153, android.sensor.gyroscope
1551585043574, 0.8296051025390625, 0.7783050537109375, 9.190704345703125, -0.0602874755859375, 0.2281951904296875, -0.14459228515625, -348.86627197265625, 15.5487060546875, 20.22247314453125, 130.51499938964844, -0.4097113013267517, 0.14594095945358276, 0.18290138244628906, 0.6764675378799438, 0.9066765308380127, 9.744559288024902, 994.8941650390625, 0.006721740122884512, -0.05783480405807495, -0.7459514141082764, 96.0, -5.463003437342816, -3.842686198277153, android.sensor.accelerometer
1551585043578, 0.8296051025390625, 0.7783050537109375, 9.190704345703125, -0.0602874755859375, 0.2281951904296875, -0.14459228515625, -348.86627197265625, 15.5487060546875, 20.22247314453125, 130.51499938964844, -0.4097113013267517, 0.14594095945358276, 0.18290138244628906, 0.44694510102272034, 0.8573350310325623, 9.762239456176758, 994.8941650390625, 0.006721740122884512, -0.05783480405807495, -0.7459514141082764, 96.0, -5.463003437342816, -3.842686198277153, android.sensor.gravity
1551585043594, 0.8296051025390625, 0.7783050537109375, 9.190704345703125, -0.0602874755859375, 0.2281951904296875, -0.14459228515625, -348.86627197265625, 15.5487060546875, 20.22247314453125, 130.51499938964844, -0.4140883684158325, 0.12394493818283081, 0.5737819671630859, 0.44694510102272034, 0.8573350310325623, 9.762239456176758, 994.8941650390625, 0.006721740122884512, -0.05783480405807495, -0.7459514141082764, 96.0, -5.463003437342816, -3.842686198277153, android.sensor.linear_acceleration
1551585043606, 0.8296051025390625, 0.7783050537109375, 9.190704345703125, -0.0602874755859375, 0.2281951904296875, -0.14459228515625, -348.86627197265625, 15.5487060546875, 20.22247314453125, 130.51499938964844, -0.4140883684158325, 0.12394493818283081, 0.5737819671630859, 0.44694510102272034, 0.8573350310325623, 9.762239456176758, 994.8941650390625, 0.013527403585612774, -0.04695966839790344, -0.7498450875282288, 97.0, -5.064427321439898, -2.3982422749144994, android.sensor.rotation_vector
1551585043606, 0.8296051025390625, 0.7783050537109375, 9.190704345703125, -0.0602874755859375, 0.2281951904296875, -0.14459228515625, -348.86627197265625, 15.5487060546875, 20.22247314453125, 130.51499938964844, -0.4140883684158325, 0.12394493818283081, 0.5737819671630859, 0.44694510102272034, 0.8573350310325623, 9.762239456176758, 994.8941650390625, 0.013527403585612774, -0.04695966839790344, -0.7498450875282288, 97.0, -5.064427321439898, -2.3982422749144994, android.sensor.orientation
1551585043650, 0.8296051025390625, 0.7783050537109375, 9.190704345703125, -0.0602874755859375, 0.2281951904296875, -0.14459228515625, -348.86627197265625, 15.5487060546875, 20.22247314453125, 130.51499938964844, -0.4140883684158325, 0.12394493818283081, 0.5737819671630859, 0.44694510102272034, 0.8573350310325623, 9.762239456176758, 994.8941650390625, 0.013527403585612774, -0.04695966839790344, -0.7498450875282288, 97.0, -5.064427321439898, -2.3982422749144994, android.sensor.pressure
1551585043650, 0.8296051025390625, 0.7783050537109375, 9.190704345703125, -0.0602874755859375, 0.2281951904296875, -0.14459228515625, -348.89678955078125, 16.89910888671875, 17.88177490234375, 130.51499938964844, -0.4140883684158325, 0.12394493818283081, 0.5737819671630859, 0.44694510102272034, 0.8573350310325623, 9.762239456176758, 994.8941650390625, 0.013527403585612774, -0.04695966839790344, -0.7498450875282288, 97.0, -5.064427321439898, -2.3982422749144994, android.sensor.magnetic_field
1551585043670, 0.8296051025390625, 0.7783050537109375, 9.190704345703125, 7.9345703125E-4, 0.1561126708984375, 0.06884765625, -348.89678955078125, 16.89910888671875, 17.88177490234375, 130.51499938964844, -0.4140883684158325, 0.12394493818283081, 0.5737819671630859, 0.44694510102272034, 0.8573350310325623, 9.762239456176758, 994.8941650390625, 0.013527403585612774, -0.04695966839790344, -0.7498450875282288, 97.0, -5.064427321439898, -2.3982422749144994, android.sensor.gyroscope
1551585043673, 0.624908447265625, 1.3179473876953125, 8.770706176757812, 7.9345703125E-4, 0.1561126708984375, 0.06884765625, -348.89678955078125, 16.89910888671875, 17.88177490234375, 130.51499938964844, -0.4140883684158325, 0.12394493818283081, 0.5737819671630859, 0.44694510102272034, 0.8573350310325623, 9.762239456176758, 994.8941650390625, 0.013527403585612774, -0.04695966839790344, -0.7498450875282288, 97.0, -5.064427321439898, -2.3982422749144994, android.sensor.accelerometer
1551585043674, 0.624908447265625, 1.3179473876953125, 8.770706176757812, 7.9345703125E-4, 0.1561126708984375, 0.06884765625, -348.89678955078125, 16.89910888671875, 17.88177490234375, 130.51499938964844, -0.4140883684158325, 0.12394493818283081, 0.5737819671630859, 0.3040643632411957, 0.8563839793205261, 9.767817497253418, 994.8941650390625, 0.013527403585612774, -0.04695966839790344, -0.7498450875282288, 97.0, -5.064427321439898, -2.3982422749144994, android.sensor.gravity
1551585043694, 0.624908447265625, 1.3179473876953125, 8.770706176757812, 7.9345703125E-4, 0.1561126708984375, 0.06884765625, -348.89678955078125, 16.89910888671875, 17.88177490234375, 130.51499938964844, -0.4207223355770111, -0.5729682445526123, 0.8454599380493164, 0.3040643632411957, 0.8563839793205261, 9.767817497253418, 994.8941650390625, 0.013527403585612774, -0.04695966839790344, -0.7498450875282288, 97.0, -5.064427321439898, -2.3982422749144994, android.sensor.linear_acceleration
1551585043700, 0.624908447265625, 1.3179473876953125, 8.770706176757812, 7.9345703125E-4, 0.1561126708984375, 0.06884765625, -348.89678955078125, 16.89910888671875, 17.88177490234375, 130.51499938964844, -0.4207223355770111, -0.5729682445526123, 0.8454599380493164, 0.3040643632411957, 0.8563839793205261, 9.767817497253418, 994.8941650390625, 0.01932068169116974, -0.04636528715491295, -0.7455531358718872, 96.0, -5.440655485265357, -1.8890098373813824, android.sensor.rotation_vector
1551585043709, 0.624908447265625, 1.3179473876953125, 8.770706176757812, 7.9345703125E-4, 0.1561126708984375, 0.06884765625, -348.89678955078125, 16.89910888671875, 17.88177490234375, 130.51499938964844, -0.4207223355770111, -0.5729682445526123, 0.8454599380493164, 0.3040643632411957, 0.8563839793205261, 9.767817497253418, 994.8941650390625, 0.01932068169116974, -0.04636528715491295, -0.7455531358718872, 96.0, -5.440655485265357, -1.8890098373813824, android.sensor.orientation
1551585043750, 0.624908447265625, 1.3179473876953125, 8.770706176757812, 7.9345703125E-4, 0.1561126708984375, 0.06884765625, -346.55609130859375, 19.3603515625, 15.09246826171875, 130.51499938964844, -0.4207223355770111, -0.5729682445526123, 0.8454599380493164, 0.3040643632411957, 0.8563839793205261, 9.767817497253418, 994.8941650390625, 0.01932068169116974, -0.04636528715491295, -0.7455531358718872, 96.0, -5.440655485265357, -1.8890098373813824, android.sensor.magnetic_field
1551585043751, 0.624908447265625, 1.3179473876953125, 8.770706176757812, 7.9345703125E-4, 0.1561126708984375, 0.06884765625, -346.55609130859375, 19.3603515625, 15.09246826171875, 130.51499938964844, -0.4207223355770111, -0.5729682445526123, 0.8454599380493164, 0.3040643632411957, 0.8563839793205261, 9.767817497253418, 994.8941650390625, 0.01932068169116974, -0.04636528715491295, -0.7455531358718872, 96.0, -5.440655485265357, -1.8890098373813824, android.sensor.pressure
1551585043769, 0.624908447265625, 1.3179473876953125, 8.770706176757812, 0.1483154296875, -0.0388641357421875, 0.210723876953125, -346.55609130859375, 19.3603515625, 15.09246826171875, 130.51499938964844, -0.4207223355770111, -0.5729682445526123, 0.8454599380493164, 0.3040643632411957, 0.8563839793205261, 9.767817497253418, 994.8941650390625, 0.01932068169116974, -0.04636528715491295, -0.7455531358718872, 96.0, -5.440655485265357, -1.8890098373813824, android.sensor.gyroscope
1551585043773, 0.96661376953125, 2.0320892333984375, 10.149246215820312, 0.1483154296875, -0.0388641357421875, 0.210723876953125, -346.55609130859375, 19.3603515625, 15.09246826171875, 130.51499938964844, -0.4207223355770111, -0.5729682445526123, 0.8454599380493164, 0.3040643632411957, 0.8563839793205261, 9.767817497253418, 994.8941650390625, 0.01932068169116974, -0.04636528715491295, -0.7455531358718872, 96.0, -5.440655485265357, -1.8890098373813824, android.sensor.accelerometer
1551585043773, 0.96661376953125, 2.0320892333984375, 10.149246215820312, 0.1483154296875, -0.0388641357421875, 0.210723876953125, -346.55609130859375, 19.3603515625, 15.09246826171875, 130.51499938964844, -0.4207223355770111, -0.5729682445526123, 0.8454599380493164, 0.36072418093681335, 0.9919330477714539, 9.753053665161133, 994.8941650390625, 0.01932068169116974, -0.04636528715491295, -0.7455531358718872, 96.0, -5.440655485265357, -1.8890098373813824, android.sensor.gravity
1551585043791, 0.96661376953125, 2.0320892333984375, 10.149246215820312, 0.1483154296875, -0.0388641357421875, 0.210723876953125, -346.55609130859375, 19.3603515625, 15.09246826171875, 130.51499938964844, -0.7292882204055786, -0.8134818077087402, -0.8970365524291992, 0.36072418093681335, 0.9919330477714539, 9.753053665161133, 994.8941650390625, 0.01932068169116974, -0.04636528715491295, -0.7455531358718872, 96.0, -5.440655485265357, -1.8890098373813824, android.sensor.linear_acceleration
1551585043798, 0.96661376953125, 2.0320892333984375, 10.149246215820312, 0.1483154296875, -0.0388641357421875, 0.210723876953125, -346.55609130859375, 19.3603515625, 15.09246826171875, 130.51499938964844, -0.7292882204055786, -0.8134818077087402, -0.8970365524291992, 0.36072418093681335, 0.9919330477714539, 9.753053665161133, 994.8941650390625, 0.022501973435282707, -0.05518334358930588, -0.7373475432395935, 95.0, -6.411065283765497, -2.3691956148085507, android.sensor.rotation_vector
1551585043804, 0.96661376953125, 2.0320892333984375, 10.149246215820312, 0.1483154296875, -0.0388641357421875, 0.210723876953125, -346.55609130859375, 19.3603515625, 15.09246826171875, 130.51499938964844, -0.7292882204055786, -0.8134818077087402, -0.8970365524291992, 0.36072418093681335, 0.9919330477714539, 9.753053665161133, 994.8941650390625, 0.022501973435282707, -0.05518334358930588, -0.7373475432395935, 95.0, -6.411065283765497, -2.3691956148085507, android.sensor.orientation
1551585043850, 0.96661376953125, 2.0320892333984375, 10.149246215820312, 0.1483154296875, -0.0388641357421875, 0.210723876953125, -343.76678466796875, 21.429443359375, 11.13128662109375, 130.51499938964844, -0.7292882204055786, -0.8134818077087402, -0.8970365524291992, 0.36072418093681335, 0.9919330477714539, 9.753053665161133, 994.8941650390625, 0.022501973435282707, -0.05518334358930588, -0.7373475432395935, 95.0, -6.411065283765497, -2.3691956148085507, android.sensor.magnetic_field
1551585043850, 0.96661376953125, 2.0320892333984375, 10.149246215820312, 0.1483154296875, -0.0388641357421875, 0.210723876953125, -343.76678466796875, 21.429443359375, 11.13128662109375, 130.51499938964844, -0.7292882204055786, -0.8134818077087402, -0.8970365524291992, 0.36072418093681335, 0.9919330477714539, 9.753053665161133, 994.8997802734375, 0.022501973435282707, -0.05518334358930588, -0.7373475432395935, 95.0, -6.411065283765497, -2.3691956148085507, android.sensor.pressure
1551585043867, 0.96661376953125, 2.0320892333984375, 10.149246215820312, 0.3842926025390625, -0.2860565185546875, 0.3379364013671875, -343.76678466796875, 21.429443359375, 11.13128662109375, 130.51499938964844, -0.7292882204055786, -0.8134818077087402, -0.8970365524291992, 0.36072418093681335, 0.9919330477714539, 9.753053665161133, 994.8997802734375, 0.022501973435282707, -0.05518334358930588, -0.7373475432395935, 95.0, -6.411065283765497, -2.3691956148085507, android.sensor.gyroscope
1551585043868, 1.0439605712890625, 1.358306884765625, 11.928054809570312, 0.3842926025390625, -0.2860565185546875, 0.3379364013671875, -343.76678466796875, 21.429443359375, 11.13128662109375, 130.51499938964844, -0.7292882204055786, -0.8134818077087402, -0.8970365524291992, 0.36072418093681335, 0.9919330477714539, 9.753053665161133, 994.8997802734375, 0.022501973435282707, -0.05518334358930588, -0.7373475432395935, 95.0, -6.411065283765497, -2.3691956148085507, android.sensor.accelerometer
1551585043871, 1.0439605712890625, 1.358306884765625, 11.928054809570312, 0.3842926025390625, -0.2860565185546875, 0.3379364013671875, -343.76678466796875, 21.429443359375, 11.13128662109375, 130.51499938964844, -0.7292882204055786, -0.8134818077087402, -0.8970365524291992, 0.6708342432975769, 1.341046690940857, 9.694724082946777, 994.8997802734375, 0.022501973435282707, -0.05518334358930588, -0.7373475432395935, 95.0, -6.411065283765497, -2.3691956148085507, android.sensor.gravity
1551585043887, 1.0439605712890625, 1.358306884765625, 11.928054809570312, 0.3842926025390625, -0.2860565185546875, 0.3379364013671875, -343.76678466796875, 21.429443359375, 11.13128662109375, 130.51499938964844, -0.32665562629699707, 0.08670568466186523, -2.502871513366699, 0.6708342432975769, 1.341046690940857, 9.694724082946777, 994.8997802734375, 0.022501973435282707, -0.05518334358930588, -0.7373475432395935, 95.0, -6.411065283765497, -2.3691956148085507, android.sensor.linear_acceleration
1551585043899, 1.0439605712890625, 1.358306884765625, 11.928054809570312, 0.3842926025390625, -0.2860565185546875, 0.3379364013671875, -343.76678466796875, 21.429443359375, 11.13128662109375, 130.51499938964844, -0.32665562629699707, 0.08670568466186523, -2.502871513366699, 0.6708342432975769, 1.341046690940857, 9.694724082946777, 994.8997802734375, 0.021698247641324997, -0.07538215070962906, -0.7256407737731934, 93.0, -7.993805810225511, -4.144530186946588, android.sensor.rotation_vector
1551585043899, 1.0439605712890625, 1.358306884765625, 11.928054809570312, 0.3842926025390625, -0.2860565185546875, 0.3379364013671875, -343.76678466796875, 21.429443359375, 11.13128662109375, 130.51499938964844, -0.32665562629699707, 0.08670568466186523, -2.502871513366699, 0.6708342432975769, 1.341046690940857, 9.694724082946777, 994.8997802734375, 0.021698247641324997, -0.07538215070962906, -0.7256407737731934, 93.0, -7.993805810225511, -4.144530186946588, android.sensor.orientation
1551585043948, 1.0439605712890625, 1.358306884765625, 11.928054809570312, 0.3842926025390625, -0.2860565185546875, 0.3379364013671875, -340.6768798828125, 23.13995361328125, 5.34210205078125, 130.51499938964844, -0.32665562629699707, 0.08670568466186523, -2.502871513366699, 0.6708342432975769, 1.341046690940857, 9.694724082946777, 994.8997802734375, 0.021698247641324997, -0.07538215070962906, -0.7256407737731934, 93.0, -7.993805810225511, -4.144530186946588, android.sensor.magnetic_field
1551585043949, 1.0439605712890625, 1.358306884765625, 11.928054809570312, 0.3842926025390625, -0.2860565185546875, 0.3379364013671875, -340.6768798828125, 23.13995361328125, 5.34210205078125, 130.51499938964844, -0.32665562629699707, 0.08670568466186523, -2.502871513366699, 0.6708342432975769, 1.341046690940857, 9.694724082946777, 994.90234375, 0.021698247641324997, -0.07538215070962906, -0.7256407737731934, 93.0, -7.993805810225511, -4.144530186946588, android.sensor.pressure
1551585043969, 1.0439605712890625, 1.358306884765625, 11.928054809570312, 0.3459014892578125, -0.1844635009765625, 0.4183197021484375, -340.6768798828125, 23.13995361328125, 5.34210205078125, 130.51499938964844, -0.32665562629699707, 0.08670568466186523, -2.502871513366699, 0.6708342432975769, 1.341046690940857, 9.694724082946777, 994.90234375, 0.021698247641324997, -0.07538215070962906, -0.7256407737731934, 93.0, -7.993805810225511, -4.144530186946588, android.sensor.gyroscope
1551585043969, 0.1068267822265625, 0.689971923828125, 9.84222412109375, 0.3459014892578125, -0.1844635009765625, 0.4183197021484375, -340.6768798828125, 23.13995361328125, 5.34210205078125, 130.51499938964844, -0.32665562629699707, 0.08670568466186523, -2.502871513366699, 0.6708342432975769, 1.341046690940857, 9.694724082946777, 994.90234375, 0.021698247641324997, -0.07538215070962906, -0.7256407737731934, 93.0, -7.993805810225511, -4.144530186946588, android.sensor.accelerometer
1551585043969, 0.1068267822265625, 0.689971923828125, 9.84222412109375, 0.3459014892578125, -0.1844635009765625, 0.4183197021484375, -340.6768798828125, 23.13995361328125, 5.34210205078125, 130.51499938964844, -0.32665562629699707, 0.08670568466186523, -2.502871513366699, 0.9013926386833191, 1.6366043090820312, 9.630427360534668, 994.90234375, 0.021698247641324997, -0.07538215070962906, -0.7256407737731934, 93.0, -7.993805810225511, -4.144530186946588, android.sensor.gravity
1551585043981, 0.1068267822265625, 0.689971923828125, 9.84222412109375, 0.3459014892578125, -0.1844635009765625, 0.4183197021484375, -340.6768798828125, 23.13995361328125, 5.34210205078125, 130.51499938964844, 0.9062100648880005, 1.0691237449645996, 0.1704883575439453, 0.9013926386833191, 1.6366043090820312, 9.630427360534668, 994.90234375, 0.021698247641324997, -0.07538215070962906, -0.7256407737731934, 93.0, -7.993805810225511, -4.144530186946588, android.sensor.linear_acceleration
